wallclock_iso,t_ms,fsr1,fsr2,emg,ax,ay,az,gx,gy,gz,mode
,957401,127,0,1840,0.203,-0.300,0.857,2.67,-11.82,-22.60,R
,957411,123,0,1839,0.191,-0.284,0.856,-2.43,-2.84,-19.27,R
,957421,120,0,1842,0.180,-0.285,0.876,-2.00,5.74,-13.35,R
,957431,124,0,1844,0.179,-0.270,0.878,-2.19,12.56,-8.17,R
,957441,123,0,1846,0.158,-0.275,0.868,-6.39,16.18,-5.25,R
,957451,124,0,1840,0.156,-0.264,0.870,-11.85,18.22,-3.01,R
,957461,123,0,1847,0.153,-0.272,0.905,-15.33,17.20,-1.80,R
,957471,122,0,1840,0.170,-0.285,0.930,-16.71,14.71,-1.91,R
,957481,125,0,1844,0.168,-0.294,0.947,-17.06,12.59,-2.38,R
,957491,121,0,1840,0.156,-0.297,0.959,-17.42,12.29,-2.64,R
,957501,118,0,1842,0.143,-0.306,0.971,-18.17,12.01,-1.65,R
,957511,123,0,1841,0.134,-0.312,0.974,-16.80,13.08,0.12,R
,957521,122,0,1843,0.138,-0.329,0.989,-16.57,11.98,1.25,R
,957531,118,0,1843,0.144,-0.349,1.022,-19.71,7.69,-0.99,R
,957541,116,0,1845,0.140,-0.361,1.041,-17.36,3.69,-4.16,R
,957551,121,0,1841,0.145,-0.357,1.053,-11.12,-0.97,-6.22,R
,957561,119,0,1844,0.155,-0.374,1.074,-3.16,-6.10,-8.48,R
,957571,124,0,1840,0.160,-0.361,1.062,2.30,-10.00,-11.22,R
,957581,119,0,1843,0.151,-0.351,1.041,2.27,-10.74,-11.91,R
,957591,119,0,1845,0.148,-0.341,1.014,2.10,-7.81,-9.83,R
,957601,119,0,1850,0.150,-0.334,0.998,2.13,-4.97,-7.22,R
,957611,123,0,1841,0.163,-0.323,0.982,2.50,-3.53,-6.29,R
,957621,123,0,1846,0.175,-0.323,0.975,1.32,-3.45,-7.07,R
,957631,122,0,1842,0.172,-0.315,0.949,0.67,-2.92,-8.35,R
,957641,122,0,1843,0.166,-0.309,0.941,0.18,-3.78,-9.28,R
,957651,128,0,1843,0.152,-0.307,0.927,-1.19,-3.18,-8.66,R
,957661,120,0,1849,0.136,-0.308,0.906,-5.71,-2.39,-7.88,R
,957671,122,0,1846,0.134,-0.313,0.921,-9.87,-2.23,-5.99,R
,957681,122,0,1852,0.146,-0.322,0.927,-11.06,-3.06,-5.58,R
,957691,119,0,1848,0.156,-0.324,0.931,-7.77,-2.22,-4.37,R
,957701,118,0,1847,0.156,-0.316,0.927,-4.22,0.32,-3.10,R
,957711,124,0,1850,0.156,-0.311,0.926,-3.32,1.42,-2.43,R
,957721,121,0,1846,0.164,-0.307,0.933,-4.89,0.29,-3.12,R
,957731,123,0,1846,0.169,-0.303,0.928,-6.22,0.93,-4.09,R
,957741,122,0,1842,0.162,-0.297,0.933,-6.77,3.60,-3.54,R
,957751,127,0,1841,0.156,-0.302,0.934,-7.32,5.29,-2.93,R
,957761,124,0,1851,0.141,-0.305,0.946,-11.18,5.20,-3.15,R
,957771,122,0,1843,0.134,-0.316,0.960,-17.56,2.80,-3.27,R
,957781,129,0,1845,0.140,-0.330,0.970,-17.38,3.14,-2.09,R
,957791,128,0,1849,0.150,-0.343,0.987,-13.21,3.77,-1.03,R
,957801,124,0,1844,0.160,-0.339,0.977,-7.97,3.66,-0.89,R
,957811,122,0,1842,0.163,-0.339,0.972,-5.06,3.61,-1.96,R
,957821,124,0,1844,0.165,-0.333,0.978,-3.73,4.12,-2.57,R
,957831,121,0,1842,0.148,-0.333,0.976,-5.59,4.62,-3.47,R
,957841,121,0,1845,0.136,-0.334,0.968,-7.73,4.29,-3.25,R
,957851,123,0,1841,0.144,-0.335,0.974,-9.03,2.48,-3.33,R
,957861,117,0,1842,0.151,-0.343,0.964,-8.25,0.45,-3.99,R
,957871,119,0,1841,0.158,-0.350,0.963,-7.04,-0.37,-5.50,R
,957881,121,0,1850,0.157,-0.346,0.974,-7.12,-1.21,-6.67,R
,957891,118,0,1841,0.150,-0.359,0.960,-9.27,-1.36,-6.99,R
,957901,123,0,1846,0.132,-0.347,0.956,-12.64,-0.28,-5.42,R
,957911,119,0,1842,0.138,-0.361,0.970,-10.78,2.06,-3.45,R
,957921,121,0,1844,0.149,-0.353,0.968,-6.77,3.39,-2.64,R
,957931,119,0,1845,0.152,-0.350,0.951,-3.61,3.45,-2.99,R
,957941,121,0,1847,0.151,-0.348,0.950,-5.12,2.18,-4.35,R
,957951,114,0,1843,0.136,-0.340,0.968,-6.68,2.47,-3.38,R
,957961,123,0,1848,0.120,-0.331,0.954,-7.39,6.01,0.30,R
,957971,124,0,1846,0.109,-0.312,0.951,-6.37,10.22,4.07,R
,957981,120,0,1845,0.117,-0.311,0.958,-8.71,9.14,4.03,R
,957991,121,0,1842,0.132,-0.326,0.972,-12.00,5.83,1.01,R
,958001,122,0,1843,0.143,-0.334,0.985,-12.72,1.72,-2.83,R
,958011,121,0,1840,0.136,-0.344,0.985,-10.51,-0.46,-5.30,R
,958021,121,0,1849,0.129,-0.347,0.984,-7.77,-2.29,-6.45,R
,958031,122,0,1847,0.133,-0.347,0.983,-5.27,-3.61,-7.41,R
,958041,121,0,1847,0.143,-0.343,0.985,-4.57,-5.33,-8.37,R
,958051,124,0,1850,0.151,-0.340,0.974,-4.61,-4.91,-8.69,R
,958061,118,0,1843,0.143,-0.344,0.971,-6.43,-4.69,-8.28,R
,958071,123,0,1841,0.135,-0.341,0.968,-7.26,-3.10,-7.25,R
,958081,118,0,1851,0.137,-0.339,0.971,-5.85,-1.91,-5.64,R
,958091,121,0,1848,0.128,-0.342,0.956,-5.62,-0.48,-3.73,R
,958101,119,0,1847,0.124,-0.337,0.973,-6.16,0.74,-2.95,R
,958111,120,0,1844,0.119,-0.335,0.969,-6.58,1.20,-2.83,R
,958121,120,0,1846,0.117,-0.334,0.960,-6.23,1.03,-2.66,R
,958131,119,0,1842,0.121,-0.326,0.968,-5.68,-0.45,-3.10,R
,958141,123,0,1843,0.129,-0.336,0.962,-5.84,-1.94,-3.83,R
,958151,119,0,1843,0.127,-0.336,0.955,-6.93,-3.01,-4.38,R
,958161,123,0,1842,0.130,-0.340,0.954,-6.90,-2.75,-4.09,R
,958171,121,0,1840,0.135,-0.338,0.964,-5.42,-1.78,-3.83,R
,958181,123,0,1849,0.135,-0.337,0.956,-4.60,-1.58,-3.56,R
,958191,121,0,1845,0.139,-0.333,0.956,-5.03,-0.71,-3.27,R
,958201,117,0,1849,0.133,-0.333,0.948,-7.21,0.27,-3.70,R
,958211,118,0,1845,0.128,-0.343,0.948,-9.73,-0.61,-3.54,R
,958221,119,0,1842,0.131,-0.336,0.958,-9.62,-0.26,-3.18,R
,958231,122,0,1843,0.127,-0.346,0.964,-8.42,-0.31,-2.55,R
,958241,123,0,1846,0.127,-0.347,0.961,-8.25,0.26,-2.26,R
,958251,121,0,1843,0.125,-0.346,0.959,-8.31,0.79,-2.32,R
,958261,118,0,1846,0.132,-0.349,0.965,-7.09,0.74,-2.03,R
,958271,108,0,1844,0.132,-0.351,0.960,-5.67,0.90,-2.55,R
,958281,118,0,1842,0.128,-0.345,0.963,-5.48,1.26,-2.64,R
,958291,119,0,1841,0.124,-0.345,0.961,-6.08,1.05,-3.39,R
,958301,118,0,1843,0.121,-0.346,0.954,-6.90,-0.42,-3.83,R
,958311,118,0,1841,0.129,-0.349,0.958,-7.19,-1.32,-4.67,R
,958321,121,0,1846,0.135,-0.350,0.964,-6.66,-1.64,-5.19,R
,958331,119,0,1840,0.134,-0.348,0.961,-7.04,-0.75,-5.39,R
,958341,118,0,1845,0.115,-0.350,0.962,-10.10,-1.03,-4.66,R
,958351,115,0,1846,0.116,-0.352,0.959,-10.31,1.22,-2.29,R
,958361,115,0,1847,0.122,-0.354,0.972,-6.89,2.35,-0.98,R
,958371,117,0,1851,0.129,-0.347,0.969,-4.29,2.13,-1.06,R
,958381,115,0,1847,0.134,-0.341,0.967,-3.77,1.84,-2.11,R
,958391,117,0,1844,0.125,-0.333,0.955,-4.26,1.98,-3.42,R
,958401,114,0,1851,0.118,-0.334,0.959,-6.32,1.64,-3.50,R
,958411,138,0,1849,0.107,-0.337,0.954,-9.61,-0.02,-3.22,R
,958421,121,0,1845,0.112,-0.350,0.969,-10.63,-1.10,-2.66,R
,958431,118,0,1849,0.121,-0.351,0.969,-8.40,-1.52,-2.93,R
,958441,124,0,1855,0.124,-0.356,0.973,-7.38,-1.32,-2.87,R
,958451,121,0,1847,0.122,-0.361,0.970,-6.54,0.07,-3.25,R
,958461,122,0,1856,0.121,-0.351,0.966,-6.03,0.07,-3.28,R
,958471,123,0,1853,0.125,-0.351,0.965,-5.59,-0.97,-4.00,R
,958481,122,0,1852,0.125,-0.356,0.969,-5.64,-2.55,-5.64,R
,958491,121,0,1849,0.132,-0.353,0.962,-5.00,-2.92,-6.58,R
,958501,120,0,1851,0.131,-0.356,0.957,-3.84,-2.43,-6.84,R
,958511,119,0,1845,0.120,-0.357,0.954,-5.97,-2.92,-6.95,R
,958521,116,0,1850,0.109,-0.348,0.954,-8.10,-1.18,-5.65,R
,958531,118,0,1842,0.112,-0.354,0.957,-8.29,-0.48,-4.48,R
,958541,118,0,1846,0.113,-0.356,0.961,-7.84,-0.71,-4.14,R
,958551,115,0,1841,0.118,-0.358,0.963,-7.62,-0.57,-3.77,R
,958561,125,0,1849,0.105,-0.357,0.961,-7.52,-0.45,-3.44,R
,958571,122,0,1846,0.105,-0.352,0.967,-6.52,0.53,-2.29,R
,958581,118,0,1853,0.109,-0.346,0.968,-4.42,0.76,-1.70,R
,958591,122,0,1847,0.118,-0.345,0.965,-3.07,-0.08,-2.22,R
,958601,114,0,1851,0.125,-0.339,0.967,-2.83,-0.83,-3.62,R
,958611,125,0,1851,0.124,-0.341,0.952,-4.68,-2.26,-4.86,R
,958621,119,0,1856,0.113,-0.333,0.955,-5.12,-0.97,-5.22,R
,958631,123,0,1853,0.119,-0.335,0.954,-6.60,-0.80,-4.87,R
,958641,122,0,1843,0.119,-0.344,0.962,-6.55,-1.87,-4.96,R
,958651,119,0,1852,0.131,-0.343,0.968,-7.18,-2.36,-6.14,R
,958661,119,0,1849,0.129,-0.348,0.961,-6.93,-2.45,-7.03,R
,958671,115,0,1844,0.117,-0.350,0.954,-7.32,-2.26,-6.41,R
,958681,126,0,1846,0.114,-0.350,0.961,-8.26,-1.70,-5.32,R
,958691,128,0,1846,0.107,-0.355,0.963,-9.15,-1.18,-3.59,R
,958701,126,0,1850,0.108,-0.352,0.970,-7.15,0.51,-1.96,R
,958711,127,0,1856,0.115,-0.350,0.968,-5.38,0.74,-1.56,R
,958721,128,0,1849,0.115,-0.346,0.967,-4.80,0.64,-2.06,R
,958731,127,0,1849,0.113,-0.349,0.958,-4.97,-0.66,-3.51,R
,958741,127,0,1846,0.117,-0.350,0.964,-4.64,-1.93,-5.07,R
,958751,126,0,1847,0.118,-0.347,0.959,-5.33,-3.03,-5.48,R
,958761,124,0,1851,0.120,-0.352,0.960,-6.35,-2.69,-6.11,R
,958771,124,0,1850,0.113,-0.351,0.963,-7.19,-2.05,-5.62,R
,958781,119,0,1849,0.111,-0.349,0.957,-7.18,-1.12,-4.51,R
,958791,125,0,1844,0.115,-0.350,0.970,-6.97,-0.94,-4.25,R
,958801,125,0,1847,0.117,-0.354,0.958,-7.56,-1.07,-4.16,R
,958811,128,0,1853,0.114,-0.353,0.966,-8.86,-1.81,-4.02,R
,958821,126,0,1850,0.109,-0.356,0.963,-8.08,-1.03,-3.50,R
,958831,138,0,1847,0.115,-0.356,0.981,-4.84,-0.51,-2.60,R
,958841,139,0,1852,0.117,-0.355,0.974,-3.59,-0.65,-3.32,R
,958851,128,0,1847,0.121,-0.352,0.968,-3.74,-1.20,-4.77,R
,958861,128,0,1850,0.122,-0.350,0.965,-4.55,-1.97,-5.94,R
,958871,94,0,1850,0.111,-0.347,0.962,-5.15,-2.25,-6.22,R
,958881,127,0,1846,0.111,-0.348,0.953,-6.03,-2.65,-5.32,R
,958891,128,0,1845,0.118,-0.348,0.962,-5.99,-1.53,-5.21,R
,958901,126,0,1849,0.123,-0.343,0.954,-5.96,-0.95,-5.35,R
,958911,123,0,1845,0.113,-0.351,0.959,-7.29,-1.49,-5.83,R
,958921,128,0,1844,0.106,-0.352,0.951,-10.25,-2.05,-5.50,R
,958931,126,0,1840,0.100,-0.359,0.962,-10.28,-1.52,-3.51,R
,958941,117,0,1848,0.111,-0.356,0.967,-6.78,-0.51,-2.64,R
,958951,128,0,1841,0.125,-0.356,0.971,-5.15,-0.36,-3.15,R
,958961,126,0,1841,0.118,-0.352,0.962,-4.95,-0.52,-4.12,R
,958971,128,0,1841,0.109,-0.351,0.963,-4.71,-0.65,-4.58,R
,958981,129,0,1845,0.113,-0.351,0.965,-3.50,-0.97,-4.57,R
,958991,127,0,1842,0.121,-0.347,0.959,-4.26,-1.44,-4.61,R
,959001,126,0,1845,0.120,-0.346,0.964,-4.98,-1.06,-5.24,R
,959011,125,0,1847,0.115,-0.344,0.958,-5.90,-1.49,-5.64,R
,959021,123,0,1850,0.107,-0.344,0.951,-6.66,-1.04,-5.36,R
,959031,128,0,1854,0.112,-0.347,0.960,-7.39,-1.59,-5.39,R
,959041,127,0,1854,0.116,-0.353,0.965,-7.56,-2.78,-6.14,R
,959051,127,0,1849,0.117,-0.361,0.959,-9.33,-3.67,-6.69,R
,959061,126,0,1845,0.108,-0.365,0.975,-9.97,-3.58,-6.08,R
,959071,128,0,1853,0.100,-0.363,0.969,-7.61,-0.81,-3.71,R
,959081,128,0,1851,0.107,-0.361,0.966,-4.46,0.33,-1.65,R
,959091,128,0,1854,0.116,-0.353,0.955,-2.75,0.32,-2.32,R
,959101,126,0,1854,0.122,-0.353,0.961,-2.54,-0.49,-4.41,R
,959111,128,0,1853,0.115,-0.345,0.962,-3.32,-1.15,-5.73,R
,959121,115,0,1855,0.108,-0.342,0.954,-3.48,-1.76,-5.64,R
,959131,129,0,1853,0.110,-0.344,0.949,-5.53,-1.96,-5.28,R
,959141,127,0,1850,0.117,-0.344,0.962,-8.00,-2.07,-5.64,R
,959151,128,0,1850,0.117,-0.353,0.958,-8.17,-1.44,-5.36,R
,959161,127,0,1851,0.110,-0.358,0.963,-8.72,-1.62,-5.15,R
,959171,128,0,1850,0.108,-0.365,0.963,-8.13,-0.98,-4.57,R
,959181,126,0,1850,0.100,-0.359,0.970,-6.75,-0.22,-3.96,R
,959191,128,0,1843,0.105,-0.366,0.972,-6.40,-0.48,-3.19,R
,959201,127,0,1850,0.106,-0.365,0.970,-5.15,-0.63,-3.09,R
,959211,128,0,1844,0.109,-0.350,0.975,-3.87,-1.29,-3.96,R
,959221,125,0,1850,0.115,-0.361,0.961,-3.84,-2.05,-5.47,R
,959231,126,0,1843,0.116,-0.363,0.968,-4.83,-2.91,-6.70,R
,959241,127,0,1851,0.117,-0.365,0.974,-4.74,-3.68,-7.21,R
,959251,126,0,1840,0.117,-0.368,0.973,-5.13,-3.55,-7.73,R
,959261,128,0,1847,0.120,-0.369,0.958,-4.90,-3.50,-8.12,R
,959271,126,0,1845,0.117,-0.368,0.967,-4.43,-3.33,-8.17,R
,959281,126,0,1846,0.118,-0.372,0.960,-4.13,-3.79,-8.83,R
,959291,124,0,1845,0.113,-0.376,0.960,-6.40,-4.55,-9.96,R
,959301,123,0,1850,0.104,-0.370,0.968,-5.87,-3.64,-9.67,R
,959311,128,0,1845,0.101,-0.369,0.965,-2.23,-2.83,-7.93,R
,959321,126,0,1851,0.112,-0.359,0.962,-1.76,-1.62,-7.59,R
,959331,125,0,1847,0.110,-0.361,0.960,-3.67,-1.84,-9.24,R
,959341,123,0,1845,0.109,-0.373,0.957,-1.88,-2.32,-9.93,R
,959351,126,0,1846,0.117,-0.373,0.968,-2.92,-4.14,-11.32,R
,959361,128,0,1847,0.116,-0.375,0.963,-4.57,-5.41,-12.87,R
,959371,126,0,1845,0.117,-0.388,0.976,-4.34,-6.61,-13.76,R
,959381,128,0,1845,0.128,-0.398,0.985,-4.34,-7.13,-14.52,R
,959391,128,0,1840,0.141,-0.413,0.989,-6.55,-8.13,-16.34,R
,959401,128,0,1840,0.127,-0.412,0.998,-7.18,-7.20,-17.30,R
,959411,133,0,1841,0.125,-0.405,1.005,-5.30,-6.22,-17.33,R
,959421,125,0,1846,0.112,-0.404,1.016,-5.97,-6.89,-18.28,R
,959431,129,0,1845,0.107,-0.405,1.019,-9.04,-9.03,-20.25,R
,959441,128,0,1846,0.109,-0.394,1.038,-10.86,-11.87,-22.52,R
,959451,130,0,1845,0.108,-0.402,1.037,-9.22,-13.36,-23.33,R
,959461,128,0,1849,0.104,-0.393,1.042,-8.32,-15.50,-24.34,R
,959471,129,0,1851,0.107,-0.390,1.034,-8.29,-18.45,-25.94,R
,959481,126,0,1846,0.118,-0.395,1.033,-7.41,-20.14,-27.62,R
,959491,126,0,1842,0.126,-0.397,1.027,-6.31,-21.44,-28.70,R
,959501,134,0,1850,0.134,-0.404,1.008,-2.46,-21.16,-29.28,R
,959511,125,0,1847,0.144,-0.398,1.000,2.81,-20.22,-29.09,R
,959521,129,0,1851,0.147,-0.381,1.000,8.81,-18.25,-28.63,R
,959531,128,0,1842,0.158,-0.370,0.985,12.48,-15.97,-28.49,R
,959541,128,0,1842,0.167,-0.352,0.971,14.13,-14.20,-29.04,R
,959551,128,0,1844,0.156,-0.334,0.965,13.86,-12.83,-29.36,R
,959561,127,0,1840,0.155,-0.327,0.954,13.37,-12.03,-29.42,R
,959571,129,0,1840,0.166,-0.327,0.948,11.17,-12.32,-29.44,R
,959581,126,0,1845,0.175,-0.320,0.952,10.78,-11.56,-29.25,R
,959591,128,0,1841,0.187,-0.307,0.936,10.07,-12.19,-29.58,R
,959601,128,0,1843,0.192,-0.301,0.935,8.00,-13.55,-30.09,R
,959611,130,0,1841,0.190,-0.286,0.925,5.13,-15.49,-29.93,R
,959621,129,0,1842,0.202,-0.282,0.927,3.43,-15.61,-29.73,R
,959631,126,0,1845,0.206,-0.291,0.934,2.38,-14.87,-28.54,R
,959641,124,0,1853,0.226,-0.287,0.926,2.27,-12.97,-27.47,R
,959651,125,0,1845,0.230,-0.294,0.933,2.06,-11.21,-26.87,R
,959661,128,0,1849,0.201,-0.291,0.958,2.71,-9.50,-26.06,R
,959671,128,0,1850,0.226,-0.286,0.933,8.18,-9.99,-23.51,R
,959681,126,0,1850,0.246,-0.273,0.925,5.39,-9.62,-23.27,R
,959691,105,0,1842,0.232,-0.274,0.934,3.45,-10.23,-23.85,R
,959701,128,0,1846,0.242,-0.277,0.935,7.54,-9.06,-21.96,R
,959711,128,0,1837,0.256,-0.272,0.922,10.78,-8.14,-21.21,R
,959721,126,0,1839,0.269,-0.274,0.918,12.47,-7.00,-20.72,R
,959731,129,0,1841,0.255,-0.264,0.927,14.79,-6.10,-20.69,R
,959741,129,0,1841,0.246,-0.246,0.925,17.51,-5.15,-19.13,R
,959751,128,0,1840,0.251,-0.237,0.935,17.48,-5.33,-18.52,R
,959761,127,0,1840,0.240,-0.218,0.927,16.58,-6.43,-17.99,R
,959771,128,0,1835,0.243,-0.216,0.945,17.39,-7.18,-17.28,R
,959781,127,0,1840,0.242,-0.203,0.947,17.78,-8.84,-17.87,R
,959791,128,0,1840,0.219,-0.206,0.946,21.63,-8.43,-16.03,R
,959801,128,0,1838,0.215,-0.201,0.962,28.13,-7.35,-12.93,R
,959811,128,0,1840,0.219,-0.168,0.966,32.13,-4.89,-10.66,R
,959821,126,0,1838,0.233,-0.155,0.955,23.55,-5.10,-12.20,R
,959831,127,0,1839,0.207,-0.163,0.981,17.71,-2.57,-14.20,R
,959841,132,0,1840,0.186,-0.154,0.995,16.39,-3.76,-13.01,R
,959851,125,0,1840,0.156,-0.148,1.011,19.05,-3.94,-9.62,R
,959861,127,0,1851,0.156,-0.137,1.012,20.85,-3.73,-5.67,R
,959871,126,0,1849,0.169,-0.129,1.023,19.57,-5.53,-3.94,R
,959881,128,0,1845,0.185,-0.129,1.052,19.28,-4.42,-2.45,R
,959891,128,0,1845,0.232,-0.111,1.049,19.52,-6.36,-0.87,R
,959901,128,0,1851,0.219,-0.119,1.072,20.48,-2.55,-1.38,R
,959911,128,0,1852,0.269,-0.109,1.045,19.19,-1.52,-1.67,R
,959921,127,0,1851,0.259,-0.105,1.024,11.10,-3.44,-4.60,R
,959931,135,0,1851,0.245,-0.129,1.005,14.39,-5.33,-3.50,R
,959941,128,0,1851,0.248,-0.106,1.008,22.01,-4.03,-0.41,R
,959951,137,0,1846,0.291,-0.097,1.009,20.58,-3.03,0.06,R
,959961,81,0,1847,0.301,-0.094,1.025,11.46,-3.56,-2.23,R
,959971,129,0,1845,0.298,-0.101,1.028,6.30,-4.14,-3.03,R
,959981,127,0,1844,0.305,-0.101,1.028,7.25,-3.65,-1.90,R
,959991,119,0,1841,0.328,-0.100,1.029,9.92,-1.81,-0.22,R
,960001,125,0,1850,0.363,-0.115,1.035,11.71,0.22,-1.61,R
,960011,126,0,1842,0.361,-0.114,1.029,13.74,0.68,-1.91,R
,960021,127,0,1841,0.357,-0.113,1.030,14.03,1.37,-2.83,R
,960031,128,0,1845,0.351,-0.122,1.039,16.91,2.18,-3.07,R
,960041,123,0,1854,0.350,-0.121,1.042,18.15,2.77,-3.25,R
,960051,125,0,1854,0.371,-0.137,1.047,22.06,2.96,-4.32,R
,960061,128,0,1850,0.380,-0.126,1.028,24.70,2.87,-6.45,R
,960071,125,0,1845,0.382,-0.140,1.028,28.07,3.45,-9.58,R
,960081,128,0,1854,0.372,-0.123,1.015,32.73,2.77,-12.52,R
,960091,126,0,1850,0.360,-0.127,0.995,34.85,0.42,-14.69,R
,960101,128,0,1853,0.339,-0.121,0.993,32.90,-1.73,-15.93,R
,960111,128,0,1851,0.330,-0.105,0.983,28.03,-1.06,-16.38,R
,960121,128,0,1856,0.342,-0.122,0.964,24.71,0.36,-15.04,R
,960131,128,0,1853,0.317,-0.085,0.953,30.79,4.64,-12.57,R
,960141,128,0,1852,0.332,-0.061,0.992,33.90,7.66,-10.84,R
,960151,125,0,1851,0.342,-0.049,0.979,34.50,5.95,-13.01,R
,960161,130,0,1850,0.335,-0.039,0.975,36.53,4.55,-14.90,R
,960171,129,0,1847,0.326,-0.015,0.964,40.94,4.32,-16.32,R
,960181,127,0,1847,0.308,0.008,0.958,45.23,4.53,-16.48,R
,960191,126,0,1843,0.297,0.023,0.952,44.78,4.53,-17.54,R
,960201,124,0,1840,0.276,0.038,0.948,41.94,1.61,-17.44,R
,960211,118,0,1840,0.265,0.047,0.930,40.18,0.45,-15.13,R
,960221,123,0,1849,0.264,0.060,0.939,34.04,1.28,-12.64,R
,960231,115,0,1850,0.269,0.064,0.952,31.14,3.61,-11.79,R
,960241,126,0,1850,0.270,0.053,0.945,27.46,4.48,-11.10,R
,960251,125,0,1849,0.257,0.052,0.943,26.19,4.68,-10.52,R
,960261,128,0,1850,0.251,0.045,0.946,25.86,5.80,-9.83,R
,960271,126,0,1850,0.246,0.028,0.937,24.61,5.08,-9.74,R
,960281,124,0,1853,0.246,0.021,0.959,24.61,5.46,-9.32,R
,960291,127,0,1850,0.242,0.016,0.947,26.01,6.15,-7.76,R
,960301,127,0,1847,0.258,0.018,0.967,26.44,7.69,-8.41,R
,960311,127,0,1847,0.247,0.020,0.972,24.99,7.51,-9.61,R
,960321,128,0,1850,0.257,0.007,0.966,22.36,7.52,-11.13,R
,960331,125,0,1843,0.251,-0.005,0.960,23.40,6.36,-10.45,R
,960341,128,0,1843,0.228,-0.002,0.980,17.17,9.45,-12.23,R
,960351,128,0,1845,0.181,-0.030,0.993,28.30,16.32,-6.23,R
,960361,128,0,1846,0.240,-0.008,0.997,38.09,20.99,-1.36,R
,960371,126,0,1845,0.288,0.013,0.991,31.08,22.90,-8.52,R
,960381,123,0,1843,0.239,0.011,0.993,24.13,22.99,-16.12,R
,960391,126,0,1843,0.199,0.014,1.007,36.59,24.26,-15.70,R
,960401,126,0,1842,0.198,0.050,1.010,47.78,25.32,-13.47,R
,960411,130,0,1840,0.211,0.072,0.996,47.84,24.73,-14.37,R
,960421,127,0,1841,0.210,0.083,0.983,46.55,23.57,-16.08,R
,960431,128,0,1842,0.203,0.098,0.982,49.77,21.86,-16.52,R
,960441,125,0,1840,0.202,0.108,0.975,52.27,19.08,-17.06,R
,960451,128,0,1842,0.198,0.128,0.938,51.22,19.26,-16.45,R
,960461,128,0,1843,0.187,0.143,0.942,50.71,20.93,-14.52,R
,960471,128,0,1843,0.200,0.161,0.939,52.88,23.42,-12.66,R
,960481,128,0,1843,0.187,0.184,0.931,52.36,23.22,-11.56,R
,960491,128,0,1843,0.183,0.205,0.934,50.56,21.09,-10.22,R
,960501,119,0,1842,0.171,0.236,0.936,48.61,19.39,-9.85,R
,960511,128,0,1843,0.170,0.244,0.931,45.63,16.68,-10.41,R
,960521,125,0,1845,0.174,0.259,0.927,43.14,12.61,-10.60,R
,960531,123,0,1846,0.175,0.274,0.925,44.04,11.39,-10.32,R
,960541,125,0,1850,0.184,0.282,0.917,47.54,9.90,-10.09,R
,960551,125,0,1851,0.191,0.286,0.896,53.77,10.42,-9.18,R
,960561,125,0,1854,0.196,0.294,0.872,58.62,10.84,-7.99,R
,960571,128,0,1847,0.196,0.322,0.858,62.13,14.06,-6.32,R
,960581,127,0,1842,0.175,0.334,0.846,65.42,18.38,-4.51,R
,960591,126,0,1846,0.147,0.365,0.830,66.71,21.19,-1.58,R
,960601,124,0,1847,0.129,0.377,0.845,65.34,22.53,0.93,R
,960611,123,0,1849,0.135,0.395,0.844,60.47,21.51,2.90,R
,960621,126,0,1844,0.129,0.405,0.849,53.00,20.51,5.68,R
,960631,128,0,1841,0.140,0.406,0.865,50.87,20.50,9.88,R
,960641,128,0,1847,0.139,0.401,0.890,56.79,23.75,16.91,R
,960651,128,0,1850,0.178,0.427,0.900,50.76,22.24,18.68,R
,960661,121,0,1847,0.154,0.409,0.909,52.06,22.85,20.78,R
,960671,128,0,1845,0.168,0.423,0.914,57.46,21.48,23.33,R
,960681,126,0,1847,0.190,0.419,0.925,57.26,22.39,24.59,R
,960691,126,0,1843,0.179,0.440,0.923,54.47,22.85,24.76,R
,960701,128,0,1841,0.167,0.428,0.939,51.36,23.92,25.52,R
,960711,127,0,1845,0.126,0.435,0.939,51.57,23.28,27.97,R
,960721,102,0,1846,0.122,0.450,0.952,53.13,22.64,31.33,R
,960731,129,0,1845,0.118,0.463,0.937,49.97,18.19,34.04,R
,960741,128,0,1850,0.073,0.457,0.959,52.15,15.16,38.04,R
,960751,126,0,1847,0.124,0.477,0.956,54.07,14.91,41.83,R
,960761,125,0,1845,0.163,0.485,0.969,43.61,10.82,38.72,R
,960771,122,0,1845,0.147,0.471,0.975,33.94,9.77,34.38,R
,960781,145,0,1851,0.105,0.451,0.983,34.45,9.23,34.09,R
,960791,128,0,1851,0.107,0.435,0.975,36.44,8.50,35.02,R
,960801,128,0,1847,0.091,0.437,0.972,35.46,7.80,35.40,R
,960811,127,0,1850,0.079,0.423,0.969,34.09,4.77,35.97,R
,960821,128,0,1853,0.085,0.430,0.979,33.17,3.90,36.52,R
,960831,128,0,1850,0.096,0.435,0.978,36.23,4.93,37.52,R
,960841,124,0,1851,0.102,0.454,0.973,37.52,5.35,38.46,R
,960851,128,0,1854,0.086,0.457,0.973,35.39,6.64,38.58,R
,960861,125,0,1854,0.091,0.470,0.979,31.42,6.85,37.97,R
,960871,128,0,1851,0.088,0.486,1.002,27.87,6.09,38.01,R
,960881,127,0,1851,0.062,0.489,1.005,22.74,5.32,37.36,R
,960891,119,0,1851,0.051,0.477,1.015,19.02,2.30,36.49,R
,960901,123,0,1855,0.048,0.474,1.020,16.88,-0.81,35.19,R
,960911,127,0,1850,0.052,0.469,1.016,16.44,-3.13,34.44,R
,960921,128,0,1849,0.037,0.460,0.986,18.59,-5.18,33.80,R
,960931,128,0,1846,0.054,0.452,0.970,20.18,-6.95,33.11,R
,960941,128,0,1850,0.072,0.458,0.964,21.92,-5.56,34.09,R
,960951,128,0,1847,0.088,0.461,0.937,21.29,-2.69,35.11,R
,960961,129,0,1856,0.091,0.480,0.935,19.22,0.50,35.28,R
,960971,128,0,1853,0.114,0.460,0.937,16.70,2.18,33.51,R
,960981,127,0,1852,0.106,0.454,0.917,11.90,-0.87,29.30,R
,960991,124,0,1846,0.063,0.471,0.920,6.26,-4.71,24.70,R
,961001,128,0,1854,0.059,0.444,0.915,3.92,-8.48,21.52,R
,961011,129,0,1841,0.089,0.431,0.890,3.74,-12.43,18.35,R
,961021,119,0,1843,0.102,0.412,0.874,4.00,-14.74,14.84,R
,961031,123,0,1843,0.106,0.386,0.844,5.02,-15.94,10.55,R
,961041,125,0,1844,0.105,0.390,0.816,8.09,-14.07,6.44,R
,961051,122,0,1847,0.109,0.367,0.782,11.60,-11.12,2.62,R
,961061,125,0,1852,0.116,0.366,0.749,17.84,-7.97,0.46,R
,961071,128,0,1846,0.083,0.382,0.724,23.31,-0.48,-1.87,R
,961081,128,0,1844,0.060,0.376,0.694,26.50,4.96,-4.70,R
,961091,128,0,1845,0.059,0.372,0.655,26.04,7.06,-8.77,R
,961101,128,0,1849,0.040,0.377,0.626,23.98,8.44,-13.70,R
,961111,128,0,1842,0.005,0.408,0.623,22.04,9.84,-16.70,R
,961121,124,0,1846,-0.022,0.413,0.633,21.69,16.93,-17.96,R
,961131,125,0,1849,-0.036,0.409,0.627,19.08,20.56,-18.81,R
,961141,122,0,1852,-0.060,0.434,0.635,12.82,22.07,-19.68,R
,961151,127,0,1847,-0.064,0.440,0.653,9.75,29.06,-21.25,R
,961161,128,0,1846,-0.064,0.437,0.661,8.76,31.52,-22.83,R
,961171,125,0,1849,-0.110,0.504,0.663,8.81,34.45,-22.98,R
,961181,121,0,1847,-0.146,0.523,0.711,6.61,39.23,-22.17,R
,961191,123,0,1854,-0.165,0.530,0.718,2.27,38.62,-22.51,R
,961201,128,0,1856,-0.207,0.574,0.740,-5.91,37.55,-21.80,R
,961211,127,0,1854,-0.214,0.550,0.768,-16.43,36.53,-22.31,R
,961221,128,0,1852,-0.205,0.519,0.795,-27.48,33.58,-24.08,R
,961231,126,0,1852,-0.211,0.503,0.788,-32.51,30.00,-25.24,R
,961241,135,0,1849,-0.208,0.458,0.799,-33.27,28.56,-27.70,R
,961251,127,0,1851,-0.176,0.466,0.792,-34.17,24.18,-31.35,R
,961261,124,0,1854,-0.139,0.424,0.795,-25.67,25.25,-29.03,R
,961271,132,0,1850,-0.101,0.440,0.800,-9.62,33.57,-26.55,R
,961281,126,0,1856,-0.067,0.485,0.810,0.96,43.03,-26.22,R
,961291,129,0,1849,-0.029,0.517,0.810,3.10,49.74,-28.66,R
,961301,129,0,1847,-0.035,0.567,0.835,-2.19,51.69,-31.47,R
,961311,128,0,1850,-0.061,0.612,0.839,-13.81,51.22,-33.18,R
,961321,126,0,1849,-0.089,0.624,0.865,-25.70,49.49,-33.16,R
,961331,128,0,1847,-0.109,0.651,0.902,-35.73,45.14,-30.92,R
,961341,125,0,1846,-0.110,0.664,0.942,-43.10,42.01,-27.51,R
,961351,125,0,1847,-0.091,0.657,0.958,-49.76,38.61,-26.22,R
,961361,126,0,1844,-0.091,0.653,0.982,-56.86,34.97,-26.69,R
,961371,127,0,1851,-0.080,0.643,0.990,-62.22,33.20,-26.83,R
,961381,127,0,1851,-0.083,0.643,0.986,-67.71,32.50,-24.89,R
,961391,127,0,1851,-0.062,0.628,0.994,-73.06,33.93,-21.51,R
,961401,128,0,1856,-0.049,0.613,1.008,-75.96,35.90,-19.15,R
,961411,128,0,1855,-0.042,0.585,1.010,-80.10,35.35,-18.05,R
,961421,128,0,1854,-0.043,0.540,1.008,-86.86,31.34,-18.89,R
,961431,126,0,1851,-0.058,0.521,1.025,-94.32,26.38,-18.83,R
,961441,128,0,1847,-0.073,0.474,1.042,-93.07,22.80,-16.03,R
,961451,129,0,1843,-0.055,0.434,1.042,-82.28,21.40,-12.40,R
,961461,127,0,1852,-0.020,0.413,1.050,-73.58,20.10,-11.51,R
,961471,125,0,1844,-0.022,0.374,1.040,-66.42,18.07,-13.10,R
,961481,128,0,1849,-0.028,0.354,1.032,-54.89,17.00,-13.48,R
,961491,127,0,1847,-0.013,0.347,1.019,-38.23,21.26,-12.00,R
,961501,130,0,1850,-0.000,0.360,1.012,-22.68,28.88,-10.67,R
,961511,128,0,1846,-0.009,0.377,1.020,-9.88,35.71,-9.76,R
,961521,119,0,1851,-0.037,0.394,1.017,-3.81,41.00,-10.19,R
,961531,122,0,1847,-0.071,0.420,1.008,-2.55,43.23,-10.19,R
,961541,126,0,1845,-0.115,0.448,1.021,-6.80,40.03,-10.37,R
,961551,125,0,1842,-0.141,0.450,1.040,-9.91,32.41,-10.52,R
,961561,121,0,1844,-0.157,0.451,1.062,-12.03,24.06,-11.22,R
,961571,124,0,1843,-0.158,0.439,1.056,-12.84,14.70,-12.64,R
,961581,141,0,1842,-0.155,0.422,1.039,-12.69,7.51,-13.74,R
,961591,122,0,1843,-0.158,0.409,1.029,-9.35,4.32,-15.03,R
,961601,117,0,1850,-0.158,0.406,1.018,-4.80,3.55,-14.84,R
,961611,108,0,1855,-0.163,0.399,1.019,-0.90,4.88,-13.04,R
,961621,124,0,1847,-0.167,0.402,1.005,0.24,7.60,-11.04,R
,961631,123,0,1841,-0.180,0.404,0.992,1.37,12.55,-7.80,R
,961641,118,0,1840,-0.189,0.411,0.984,4.13,17.77,-4.75,R
,961651,125,0,1842,-0.198,0.410,0.971,6.85,20.53,-3.45,R
,961661,125,0,1841,-0.212,0.416,0.961,8.19,20.21,-3.91,R
,961671,129,0,1850,-0.219,0.414,0.948,6.96,16.99,-5.36,R
,961681,124,0,1843,-0.219,0.409,0.946,6.99,13.64,-7.25,R
,961691,121,0,1848,-0.214,0.401,0.935,7.87,9.69,-9.19,R
,961701,124,0,1854,-0.207,0.396,0.906,7.55,4.59,-10.54,R
,961711,128,0,1854,-0.198,0.408,0.904,7.95,3.97,-10.99,R
,961721,127,0,1850,-0.191,0.416,0.897,6.09,3.06,-11.28,R
,961731,129,0,1850,-0.191,0.426,0.896,0.99,2.71,-11.87,R
,961741,129,0,1849,-0.189,0.432,0.899,-3.39,4.13,-11.51,R
,961751,128,0,1847,-0.186,0.423,0.903,-6.26,5.37,-11.30,R
,961761,129,0,1851,-0.192,0.412,0.907,-8.80,4.56,-11.06,R
,961771,128,0,1852,-0.183,0.404,0.913,-10.20,4.67,-11.01,R
,961781,120,0,1852,-0.190,0.405,0.937,-7.93,6.65,-10.41,R
,961791,128,0,1847,-0.183,0.404,0.938,-3.50,6.71,-9.76,R
,961801,131,0,1850,-0.188,0.418,0.941,0.73,7.55,-8.87,R
,961811,128,0,1850,-0.191,0.429,0.947,2.47,6.94,-8.49,R
,961821,134,0,1847,-0.191,0.440,0.939,1.63,5.22,-8.02,R
,961831,127,0,1847,-0.191,0.444,0.941,0.90,3.37,-8.19,R
,961841,115,0,1850,-0.190,0.443,0.944,-0.00,1.42,-8.78,R
,961851,129,0,1844,-0.198,0.442,0.938,-0.75,-0.49,-8.80,R
,961861,127,0,1854,-0.209,0.440,0.938,-1.82,-1.49,-8.72,R
,961871,126,0,1854,-0.211,0.441,0.936,-3.59,-2.60,-8.64,R
,961881,125,0,1851,-0.208,0.431,0.935,-5.03,-3.33,-9.04,R
,961891,125,0,1851,-0.208,0.417,0.933,-6.05,-5.27,-9.61,R
,961901,128,0,1843,-0.203,0.414,0.939,-5.24,-6.02,-10.20,R
,961911,124,0,1851,-0.200,0.416,0.944,-2.77,-6.52,-10.22,R
,961921,127,0,1849,-0.199,0.417,0.939,-1.12,-8.17,-10.43,R
,961931,125,0,1846,-0.194,0.416,0.937,0.10,-10.97,-11.06,R
,961941,128,0,1849,-0.206,0.425,0.947,-0.26,-13.94,-12.12,R
,961951,126,0,1849,-0.191,0.411,0.948,-0.37,-18.26,-13.28,R
,961961,127,0,1845,-0.181,0.409,0.935,2.01,-21.64,-14.89,R
,961971,123,0,1847,-0.172,0.409,0.923,6.74,-23.15,-16.43,R
,961981,126,0,1849,-0.182,0.409,0.929,6.71,-23.74,-17.36,R
,961991,122,0,1848,-0.180,0.405,0.926,7.13,-23.13,-18.19,R
,962001,121,0,1846,-0.177,0.417,0.915,6.13,-20.52,-17.64,R
,962011,124,0,1849,-0.173,0.412,0.927,5.11,-17.56,-15.51,R
,962021,123,0,1845,-0.188,0.420,0.917,5.17,-14.68,-13.65,R
,962031,123,0,1845,-0.185,0.423,0.919,4.33,-13.73,-11.15,R
,962041,127,0,1841,-0.181,0.415,0.912,2.71,-15.20,-11.07,R
,962051,125,0,1841,-0.164,0.424,0.905,3.86,-16.22,-12.40,R
,962061,132,0,1843,-0.160,0.434,0.914,4.18,-17.33,-13.61,R
,962071,118,0,1841,-0.169,0.445,0.905,7.84,-17.78,-13.97,R
,962081,126,0,1840,-0.158,0.448,0.898,8.65,-18.46,-13.90,R
,962091,122,0,1846,-0.149,0.458,0.883,7.48,-18.10,-15.54,R
,962101,121,0,1841,-0.144,0.460,0.900,1.92,-17.20,-16.48,R
,962111,123,0,1846,-0.156,0.463,0.890,1.48,-14.42,-15.90,R
,962121,115,0,1847,-0.165,0.460,0.889,2.27,-11.16,-12.51,R
,962131,129,0,1854,-0.158,0.472,0.901,1.84,-8.54,-10.75,R
,962141,124,0,1853,-0.159,0.467,0.904,-0.48,-7.09,-10.29,R
,962151,126,0,1851,-0.171,0.468,0.903,-0.10,-7.52,-8.83,R
,962161,128,0,1851,-0.162,0.472,0.895,-0.64,-6.31,-8.38,R
,962171,128,0,1853,-0.170,0.462,0.907,1.46,-6.52,-7.71,R
,962181,127,0,1850,-0.165,0.462,0.887,3.97,-6.97,-7.15,R
,962191,128,0,1850,-0.161,0.468,0.885,3.17,-7.04,-6.49,R
,962201,126,0,1843,-0.157,0.471,0.875,2.32,-7.44,-6.66,R
,962211,126,0,1851,-0.161,0.474,0.868,2.23,-6.25,-5.67,R
,962221,127,0,1843,-0.155,0.480,0.872,0.58,-6.05,-5.13,R
,962231,128,0,1843,-0.158,0.487,0.870,-0.61,-5.56,-5.16,R
,962241,125,0,1842,-0.164,0.500,0.874,-4.95,-6.19,-4.37,R
,962251,125,0,1847,-0.168,0.496,0.873,-9.07,-6.63,-3.91,R
,962261,128,0,1845,-0.184,0.477,0.889,-14.34,-8.39,-3.87,R
,962271,126,0,1856,-0.185,0.463,0.896,-16.95,-9.58,-3.35,R
,962281,128,0,1854,-0.179,0.436,0.899,-14.52,-9.41,-2.87,R
,962291,128,0,1855,-0.157,0.434,0.905,-8.51,-7.55,-2.26,R
,962301,126,0,1850,-0.142,0.433,0.902,-1.77,-4.75,-2.63,R
,962311,125,0,1854,-0.132,0.444,0.894,2.38,-2.02,-3.25,R
,962321,129,0,1846,-0.132,0.456,0.896,5.37,1.25,-2.72,R
,962331,128,0,1846,-0.131,0.474,0.898,6.27,4.93,-1.77,R
,962341,112,0,1844,-0.141,0.482,0.895,3.63,5.25,-1.04,R
,962351,128,0,1841,-0.153,0.489,0.901,-1.94,3.60,-0.32,R
,962361,124,0,1842,-0.155,0.481,0.891,-8.11,0.39,-0.55,R
,962371,125,0,1846,-0.147,0.471,0.912,-12.20,-3.68,-1.25,R
,962381,112,0,1843,-0.144,0.458,0.919,-12.55,-5.67,-2.02,R
,962391,128,0,1841,-0.132,0.450,0.925,-11.73,-6.23,-2.84,R
,962401,128,0,1842,-0.131,0.454,0.921,-8.84,-5.59,-3.18,R
,962411,125,0,1841,-0.133,0.447,0.924,-5.06,-3.49,-2.38,R
,962421,128,0,1842,-0.148,0.440,0.942,1.65,0.15,-1.41,R
,962431,128,0,1843,-0.125,0.452,0.928,-1.91,0.73,-3.48,R
,962441,123,0,1840,-0.157,0.451,0.908,1.57,-1.87,-2.75,R
,962451,128,0,1843,-0.153,0.457,0.896,3.72,-1.99,-3.21,R
,962461,128,0,1840,-0.139,0.462,0.898,4.64,-2.16,-3.51,R
,962471,124,0,1840,-0.142,0.467,0.881,2.99,-2.45,-3.94,R
,962481,123,0,1842,-0.149,0.469,0.873,1.37,-2.43,-3.33,R
,962491,125,0,1845,-0.147,0.473,0.886,-2.69,-2.10,-3.15,R
,962501,125,0,1851,-0.146,0.476,0.875,-5.44,-1.47,-2.70,R
,962511,124,0,1849,-0.151,0.463,0.884,-7.58,-1.73,-2.34,R
,962521,128,0,1847,-0.149,0.452,0.890,-9.52,-2.91,-2.70,R
,962531,127,0,1847,-0.147,0.448,0.892,-10.80,-3.82,-2.86,R
,962541,128,0,1843,-0.135,0.443,0.897,-8.58,-2.57,-2.28,R
,962551,125,0,1852,-0.131,0.444,0.892,-4.98,-1.16,-2.14,R
,962561,128,0,1844,-0.127,0.440,0.882,-2.77,-0.45,-3.39,R
,962571,128,0,1842,-0.127,0.457,0.888,-3.45,-0.10,-4.05,R
,962581,127,0,1851,-0.128,0.449,0.884,-2.69,0.51,-4.78,R
,962591,127,0,1851,-0.127,0.461,0.890,-1.76,0.59,-4.87,R
,962601,128,0,1844,-0.133,0.461,0.888,-2.19,0.71,-5.32,R
,962611,134,0,1851,-0.134,0.463,0.879,-3.97,-0.80,-6.09,R
,962621,126,0,1850,-0.134,0.466,0.887,-5.29,-1.12,-6.31,R
,962631,128,0,1853,-0.134,0.464,0.892,-5.74,-0.92,-6.37,R
,962641,128,0,1847,-0.139,0.469,0.894,-7.81,-1.49,-6.34,R
,962651,124,0,1850,-0.144,0.466,0.906,-8.63,-1.36,-5.77,R
,962661,128,0,1847,-0.142,0.465,0.904,-6.28,-1.06,-4.90,R
,962671,130,0,1846,-0.141,0.475,0.912,-3.22,-0.45,-4.38,R
,962681,130,0,1845,-0.134,0.483,0.908,-1.42,0.93,-3.97,R
,962691,128,0,1853,-0.136,0.493,0.890,-2.14,-0.40,-4.19,R
,962701,130,0,1843,-0.138,0.489,0.888,-3.18,-1.10,-4.43,R
,962711,128,0,1849,-0.136,0.478,0.891,-3.82,-1.76,-4.72,R
,962721,129,0,1843,-0.125,0.472,0.882,-2.77,-2.77,-5.24,R
,962731,127,0,1847,-0.131,0.467,0.871,-3.07,-3.07,-4.98,R
,962741,128,0,1842,-0.130,0.469,0.864,-3.01,-2.14,-4.87,R
,962751,127,0,1843,-0.123,0.473,0.877,-3.41,-0.25,-4.60,R
,962761,126,0,1843,-0.123,0.470,0.875,-4.14,1.05,-4.51,R
,962771,128,0,1850,-0.138,0.467,0.874,-4.45,2.04,-5.28,R
,962781,129,0,1847,-0.144,0.470,0.866,-6.05,1.81,-5.39,R
,962791,128,0,1847,-0.153,0.473,0.882,-7.07,0.51,-4.89,R
,962801,128,0,1843,-0.156,0.478,0.891,-5.52,1.16,-4.14,R
,962811,124,0,1847,-0.148,0.479,0.892,-5.39,2.03,-3.54,R
,962821,128,0,1841,-0.145,0.477,0.891,-4.93,2.56,-4.09,R
,962831,128,0,1845,-0.153,0.474,0.879,-5.76,2.19,-4.29,R
,962841,128,0,1845,-0.159,0.479,0.883,-6.68,2.26,-3.85,R
,962851,128,0,1853,-0.152,0.474,0.892,-6.35,2.01,-2.99,R
,962861,128,0,1850,-0.148,0.482,0.893,-5.87,2.61,-2.96,R
,962871,126,0,1841,-0.145,0.477,0.880,-6.05,2.35,-3.22,R
,962881,130,0,1840,-0.137,0.480,0.888,-4.81,2.50,-4.17,R
,962891,117,0,1846,-0.151,0.477,0.877,-6.23,2.91,-4.23,R
,962901,130,0,1845,-0.161,0.477,0.885,-6.90,3.80,-3.80,R
,962911,127,0,1847,-0.162,0.485,0.897,-7.24,4.26,-2.67,R
,962921,128,0,1847,-0.168,0.476,0.910,-9.44,3.71,-2.58,R
,962931,124,0,1849,-0.171,0.474,0.915,-9.67,2.68,-2.45,R
,962941,128,0,1845,-0.161,0.460,0.913,-7.91,1.08,-2.90,R
,962951,128,0,1847,-0.157,0.466,0.906,-6.74,-0.98,-3.35,R
,962961,129,0,1847,-0.152,0.460,0.896,-6.35,-1.91,-3.56,R
,962971,130,0,1850,-0.143,0.467,0.901,-5.35,-1.59,-3.06,R
,962981,128,0,1847,-0.139,0.469,0.902,-4.11,-0.03,-3.48,R
,962991,129,0,1846,-0.144,0.472,0.892,-3.64,0.67,-3.56,R
,963001,127,0,1844,-0.152,0.469,0.892,-6.00,0.10,-3.97,R
,963011,130,0,1850,-0.156,0.469,0.891,-7.32,0.12,-3.97,R
,963021,130,0,1855,-0.152,0.470,0.894,-6.37,0.21,-3.74,R
,963031,131,0,1850,-0.156,0.472,0.900,-5.30,-0.49,-4.57,R
,963041,128,0,1845,-0.154,0.478,0.893,-5.26,-1.52,-5.12,R
,963051,128,0,1846,-0.155,0.478,0.894,-5.65,-1.94,-5.71,R
,963061,128,0,1846,-0.155,0.470,0.891,-6.45,-2.00,-5.70,R
,963071,128,0,1847,-0.160,0.469,0.889,-7.16,-1.96,-5.62,R
,963081,126,0,1841,-0.158,0.468,0.884,-7.07,-1.94,-4.87,R
,963091,128,0,1844,-0.168,0.466,0.886,-6.10,-1.04,-4.08,R
,963101,128,0,1841,-0.159,0.465,0.879,-6.66,-1.41,-4.34,R
,963111,129,0,1845,-0.154,0.470,0.884,-7.27,-1.62,-5.10,R
,963121,129,0,1842,-0.154,0.467,0.891,-7.00,-1.04,-5.21,R
,963131,127,0,1846,-0.158,0.463,0.883,-6.80,-0.74,-5.62,R
,963141,127,0,1840,-0.160,0.463,0.895,-6.77,-0.57,-5.42,R
,963151,129,0,1851,-0.161,0.472,0.894,-6.28,-0.74,-5.03,R
,963161,119,0,1841,-0.158,0.474,0.886,-6.16,-1.13,-4.96,R
,963171,133,0,1842,-0.148,0.472,0.897,-5.73,-1.07,-4.46,R
,963181,128,0,1845,-0.156,0.485,0.897,-6.20,-1.15,-4.00,R
,963191,122,0,1842,-0.151,0.486,0.902,-6.69,-1.09,-3.44,R
,963201,129,0,1840,-0.155,0.486,0.906,-7.97,-1.30,-3.06,R
,963211,129,0,1847,-0.151,0.477,0.912,-9.04,-1.85,-3.35,R
,963221,128,0,1845,-0.158,0.471,0.916,-8.63,-2.71,-3.30,R
,963231,127,0,1850,-0.159,0.462,0.915,-7.29,-3.04,-4.06,R
,963241,130,0,1850,-0.152,0.454,0.903,-4.48,-3.94,-5.07,R
,963251,128,0,1856,-0.147,0.458,0.896,-2.66,-4.43,-5.22,R
,963261,128,0,1847,-0.146,0.461,0.902,-1.56,-3.59,-5.06,R
,963271,130,0,1847,-0.150,0.476,0.889,-1.50,-3.29,-5.36,R
,963281,131,0,1846,-0.155,0.484,0.881,-3.99,-3.42,-5.25,R
,963291,127,0,1853,-0.167,0.480,0.880,-5.97,-3.38,-4.37,R
,963301,128,0,1847,-0.163,0.466,0.876,-7.32,-4.60,-4.58,R
,963311,128,0,1851,-0.167,0.457,0.879,-7.77,-5.04,-4.55,R
,963321,129,0,1848,-0.152,0.457,0.879,-6.60,-5.18,-4.72,R
,963331,128,0,1854,-0.151,0.458,0.875,-3.90,-3.49,-3.96,R
,963341,124,0,1856,-0.142,0.461,0.864,-2.75,-1.88,-3.85,R
,963351,133,0,1855,-0.142,0.469,0.868,-2.66,0.24,-3.44,R
,963361,128,0,1847,-0.146,0.480,0.868,-4.35,1.35,-3.80,R
,963371,126,0,1850,-0.154,0.479,0.871,-6.80,0.88,-4.19,R
,963381,128,0,1848,-0.160,0.482,0.885,-9.44,-1.09,-4.98,R
,963391,128,0,1851,-0.168,0.482,0.897,-9.90,-1.62,-4.89,R
,963401,127,0,1851,-0.166,0.469,0.907,-9.93,-2.97,-5.13,R
,963411,129,0,1849,-0.168,0.468,0.914,-9.36,-2.69,-4.86,R
,963421,128,0,1845,-0.167,0.460,0.915,-7.62,-2.43,-4.03,R
,963431,117,0,1852,-0.157,0.464,0.915,-5.62,-1.85,-3.42,R
,963441,136,0,1843,-0.148,0.454,0.917,-3.76,-2.19,-3.30,R
,963451,146,0,1846,-0.143,0.461,0.903,-2.93,-3.45,-3.39,R
,963461,133,0,1841,-0.138,0.465,0.900,-3.12,-3.67,-3.90,R
,963471,134,0,1846,-0.132,0.466,0.893,-4.23,-5.01,-5.01,R
,963481,128,0,1847,-0.128,0.466,0.875,-5.81,-5.68,-4.87,R
,963491,135,0,1844,-0.124,0.461,0.878,-5.74,-5.59,-4.23,R
,963501,133,0,1841,-0.112,0.468,0.882,-5.21,-4.94,-3.94,R
,963511,138,0,1843,-0.119,0.470,0.884,-5.53,-4.61,-4.14,R
,963521,132,0,1840,-0.127,0.480,0.896,-6.22,-5.16,-4.89,R
,963531,132,0,1841,-0.133,0.485,0.901,-6.74,-5.20,-5.04,R
,963541,130,0,1842,-0.143,0.493,0.908,-5.97,-4.89,-4.75,R
,963551,131,0,1847,-0.157,0.497,0.918,-6.37,-4.52,-4.48,R
,963561,131,0,1843,-0.171,0.508,0.917,-7.73,-4.94,-4.00,R
,963571,133,0,1845,-0.186,0.503,0.917,-8.68,-5.53,-3.73,R
,963581,133,0,1840,-0.195,0.495,0.911,-9.88,-6.86,-3.10,R
,963591,134,0,1842,-0.201,0.484,0.919,-11.18,-8.61,-2.93,R
,963601,128,0,1840,-0.202,0.484,0.917,-10.05,-10.13,-2.49,R
,963611,132,0,1846,-0.198,0.478,0.926,-8.83,-11.44,-1.44,R
,963621,137,0,1841,-0.195,0.474,0.926,-8.93,-13.01,-1.13,R
,963631,137,0,1848,-0.191,0.479,0.918,-8.86,-13.68,0.39,R
,963641,128,0,1847,-0.186,0.481,0.911,-7.36,-14.31,1.97,R
,963651,131,0,1849,-0.173,0.487,0.902,-6.57,-15.33,3.23,R
,963661,134,0,1844,-0.172,0.495,0.905,-6.64,-16.19,3.91,R
,963671,137,0,1852,-0.163,0.509,0.902,-7.62,-17.42,4.36,R
,963681,128,0,1854,-0.167,0.528,0.907,-9.52,-18.31,5.26,R
,963691,133,0,1846,-0.167,0.542,0.912,-11.47,-18.89,7.17,R
,963701,131,0,1846,-0.178,0.552,0.921,-14.32,-19.94,9.13,R
,963711,144,0,1855,-0.189,0.565,0.927,-19.12,-20.22,11.68,R
,963721,128,0,1848,-0.203,0.568,0.953,-25.30,-22.92,14.46,R
,963731,135,0,1849,-0.206,0.562,0.974,-30.60,-25.82,16.55,R
,963741,128,0,1846,-0.205,0.553,0.986,-31.41,-28.86,17.43,R
,963751,106,0,1843,-0.212,0.542,0.990,-31.84,-33.29,17.63,R
,963761,139,0,1840,-0.205,0.540,1.021,-32.39,-37.97,16.81,R
,963771,137,0,1849,-0.209,0.544,1.030,-32.31,-40.84,16.38,R
,963781,135,0,1850,-0.232,0.550,1.055,-30.26,-41.82,17.88,R
,963791,130,0,1849,-0.247,0.535,1.064,-29.32,-42.92,20.70,R
,963801,131,0,1845,-0.249,0.542,1.100,-28.87,-43.58,23.54,R
,963811,133,0,1847,-0.249,0.539,1.113,-24.87,-44.45,26.38,R
,963821,137,0,1846,-0.249,0.525,1.118,-18.95,-46.58,28.42,R
,963831,137,0,1845,-0.250,0.529,1.112,-14.78,-50.07,29.91,R
,963841,133,0,1841,-0.247,0.544,1.123,-11.74,-52.86,30.53,R
,963851,133,0,1842,-0.247,0.554,1.132,-8.77,-56.57,31.68,R
,963861,134,0,1840,-0.257,0.554,1.142,-10.02,-61.47,32.53,R
,963871,131,0,1843,-0.242,0.538,1.151,-10.51,-67.56,34.17,R
,963881,131,0,1843,-0.225,0.512,1.144,-9.96,-72.54,35.59,R
,963891,130,0,1844,-0.201,0.483,1.153,-6.14,-76.86,37.68,R
,963901,130,0,1841,-0.166,0.452,1.139,-2.43,-80.29,38.72,R
,963911,130,0,1845,-0.149,0.438,1.136,0.94,-81.87,40.04,R
,963921,133,0,1846,-0.119,0.406,1.144,6.12,-81.27,40.99,R
,963931,128,0,1843,-0.099,0.395,1.129,14.45,-78.87,41.89,R
,963941,132,0,1842,-0.108,0.360,1.119,18.76,-79.79,39.55,R
,963951,133,0,1843,-0.103,0.335,1.101,26.21,-80.74,35.80,R
,963961,111,0,1843,-0.051,0.283,1.080,34.33,-82.94,31.97,R
,963971,142,0,1847,-0.008,0.297,1.028,46.99,-82.10,28.44,R
,963981,141,0,1851,0.033,0.293,0.991,56.85,-79.91,25.72,R
,963991,135,0,1847,-0.002,0.308,0.953,57.05,-75.47,20.03,R
,964001,129,0,1843,-0.030,0.287,0.908,52.09,-75.39,13.22,R
,964011,111,0,1845,-0.034,0.286,0.879,49.98,-70.97,9.95,R
,964021,139,0,1841,-0.002,0.242,0.844,45.78,-68.60,5.14,R
,964031,140,0,1842,0.034,0.223,0.784,40.03,-70.60,-1.79,R
,964041,132,0,1841,0.075,0.217,0.758,35.52,-73.74,-10.66,R
,964051,133,0,1840,0.090,0.214,0.739,36.23,-73.84,-19.28,R
,964061,134,0,1846,0.174,0.210,0.708,38.59,-70.16,-30.35,R
,964071,133,0,1847,0.208,0.247,0.691,42.45,-66.71,-37.54,R
,964081,134,0,1849,0.254,0.266,0.665,48.56,-58.13,-42.02,R
,964091,136,0,1847,0.255,0.317,0.656,52.53,-52.32,-44.51,R
,964101,129,0,1846,0.280,0.376,0.628,47.97,-44.65,-45.68,R
,964111,131,0,1847,0.294,0.401,0.620,41.28,-38.81,-45.22,R
,964121,130,0,1846,0.315,0.427,0.629,31.69,-32.20,-46.45,R
,964131,129,0,1843,0.348,0.440,0.623,22.99,-33.94,-46.95,R
,964141,131,0,1840,0.373,0.461,0.603,11.46,-33.93,-48.08,R
,964151,128,0,1845,0.399,0.458,0.598,4.82,-32.61,-49.85,R
,964161,134,0,1846,0.410,0.465,0.594,2.55,-31.53,-50.83,R
,964171,132,0,1840,0.416,0.462,0.568,1.80,-27.82,-50.32,R
,964181,129,0,1843,0.436,0.477,0.568,-1.55,-25.06,-51.45,R
,964191,128,0,1843,0.434,0.502,0.578,-3.38,-21.52,-51.74,R
,964201,126,0,1844,0.434,0.522,0.583,-4.93,-16.43,-50.46,R
,964211,128,0,1840,0.443,0.523,0.580,-4.29,-13.50,-48.35,R
,964221,128,0,1840,0.457,0.546,0.567,-3.81,-11.03,-46.17,R
,964231,108,0,1841,0.468,0.567,0.570,-3.68,-9.50,-43.45,R
,964241,137,0,1844,0.489,0.577,0.572,-4.58,-7.91,-41.59,R
,964251,134,0,1847,0.488,0.625,0.563,-6.17,-5.58,-39.07,R
,964261,129,0,1838,0.494,0.644,0.571,-10.54,-2.81,-37.28,R
,964271,130,0,1840,0.470,0.698,0.581,-17.74,-0.74,-34.14,R
,964281,129,0,1845,0.423,0.735,0.626,-28.46,-1.42,-31.91,R
,964291,91,0,1845,0.418,0.736,0.642,-38.66,-4.08,-28.51,R
,964301,138,0,1842,0.409,0.735,0.677,-49.67,-9.16,-26.09,R
,964311,130,0,1844,0.409,0.716,0.709,-57.03,-13.13,-24.41,R
,964321,129,0,1844,0.406,0.702,0.753,-58.77,-13.96,-22.17,R
,964331,128,0,1842,0.392,0.700,0.787,-57.26,-12.61,-18.67,R
,964341,130,0,1841,0.367,0.683,0.829,-52.35,-10.16,-15.09,R
,964351,127,0,1841,0.350,0.684,0.860,-48.32,-8.28,-12.03,R
,964361,128,0,1845,0.332,0.681,0.886,-45.93,-8.29,-8.83,R
,964371,128,0,1847,0.307,0.670,0.917,-44.57,-10.00,-6.28,R
,964381,123,0,1847,0.294,0.658,0.929,-41.58,-11.38,-4.05,R
,964391,128,0,1842,0.283,0.659,0.922,-37.26,-13.10,-2.95,R
,964401,128,0,1843,0.277,0.631,0.929,-31.61,-17.07,-1.33,R
,964411,128,0,1851,0.290,0.610,0.884,-27.82,-22.72,-1.19,R
,964421,128,0,1846,0.279,0.607,0.875,-21.52,-26.16,-0.09,R
,964431,127,0,1850,0.279,0.585,0.854,-12.64,-27.44,1.25,R
,964441,128,0,1849,0.323,0.589,0.810,-8.86,-27.29,2.38,R
,964451,128,0,1850,0.323,0.591,0.783,-4.72,-26.02,4.32,R
,964461,124,0,1847,0.342,0.585,0.759,-0.69,-24.57,6.00,R
,964471,128,0,1852,0.354,0.591,0.738,0.64,-22.94,7.07,R
,964481,141,0,1846,0.357,0.593,0.710,2.52,-20.48,8.13,R
,964491,133,0,1849,0.352,0.595,0.700,3.98,-18.72,8.91,R
,964501,103,0,1851,0.353,0.598,0.683,4.26,-17.53,9.42,R
,964511,134,0,1851,0.340,0.607,0.677,3.02,-16.98,10.32,R
,964521,131,0,1846,0.342,0.599,0.674,2.68,-16.16,12.17,R
,964531,117,0,1846,0.340,0.611,0.670,1.75,-15.76,14.82,R
,964541,127,0,1849,0.347,0.618,0.667,2.42,-14.45,17.57,R
,964551,87,0,1851,0.352,0.625,0.671,2.96,-14.26,18.61,R
,964561,142,0,1851,0.364,0.627,0.660,3.10,-14.32,18.96,R
,964571,135,0,1849,0.358,0.634,0.646,2.26,-13.44,19.66,R
,964581,127,0,1841,0.358,0.632,0.650,1.97,-11.68,20.68,R
,964591,128,0,1843,0.352,0.642,0.649,2.79,-8.68,23.20,R
,964601,136,0,1840,0.357,0.643,0.656,4.15,-5.04,25.97,R
,964611,128,0,1843,0.359,0.640,0.670,4.09,-1.93,28.15,R
,964621,130,0,1845,0.354,0.654,0.680,1.69,-0.80,29.71,R
,964631,127,0,1844,0.341,0.637,0.703,-1.79,-0.92,30.10,R
,964641,131,0,1841,0.321,0.639,0.724,-5.44,-0.75,30.78,R
,964651,129,0,1840,0.315,0.617,0.740,-6.74,-1.84,30.64,R
,964661,130,0,1839,0.302,0.613,0.760,-8.37,-3.39,30.21,R
,964671,134,0,1845,0.295,0.594,0.763,-8.22,-3.58,29.28,R
,964681,128,0,1840,0.290,0.571,0.775,-7.74,-4.80,28.73,R
,964691,129,0,1843,0.294,0.552,0.769,-3.94,-3.94,28.94,R
,964701,131,0,1842,0.292,0.540,0.776,0.90,-2.20,29.20,R
,964711,130,0,1840,0.305,0.536,0.779,5.58,0.67,29.49,R
,964721,128,0,1840,0.317,0.535,0.765,9.00,3.52,29.66,R
,964731,129,0,1839,0.312,0.542,0.762,10.47,5.35,29.22,R
,964741,133,0,1840,0.314,0.542,0.761,7.94,4.94,27.69,R
,964751,128,0,1840,0.308,0.539,0.766,3.61,3.45,26.00,R
,964761,133,0,1844,0.303,0.532,0.771,-1.01,1.93,24.75,R
,964771,100,0,1842,0.297,0.518,0.777,-4.84,1.75,23.66,R
,964781,134,0,1846,0.293,0.504,0.786,-9.39,1.26,22.67,R
,964791,129,0,1847,0.294,0.489,0.799,-12.31,0.67,21.69,R
,964801,125,0,1850,0.297,0.474,0.798,-13.97,0.10,20.36,R
,964811,127,0,1845,0.309,0.457,0.811,-14.28,-0.84,17.92,R
,964821,106,0,1842,0.314,0.443,0.833,-13.99,-1.59,15.43,R
,964831,133,0,1846,0.318,0.440,0.838,-13.04,-1.42,12.94,R
,964841,135,0,1847,0.309,0.445,0.856,-11.44,-1.15,10.85,R
,964851,134,0,1846,0.287,0.438,0.865,-9.94,-1.12,9.31,R
,964861,128,0,1845,0.277,0.442,0.864,-8.32,-0.42,8.15,R
,964871,129,0,1846,0.279,0.417,0.860,-5.93,-0.43,6.73,R
,964881,131,0,1843,0.281,0.413,0.854,-1.41,-0.28,5.19,R
,964891,128,0,1843,0.281,0.414,0.845,2.76,-1.30,2.44,R
,964901,129,0,1847,0.301,0.407,0.847,4.65,-3.96,-1.56,R
,964911,127,0,1850,0.285,0.428,0.861,3.42,-6.98,-4.99,R
,964921,130,0,1853,0.271,0.424,0.865,-0.54,-10.05,-7.13,R
,964931,126,0,1847,0.261,0.440,0.874,-6.40,-13.24,-9.27,R
,964941,129,0,1850,0.189,0.467,0.878,-18.89,-16.31,-11.27,R
,964951,126,0,1845,0.252,0.408,0.889,-13.84,-20.81,-13.87,R
,964961,128,0,1850,0.272,0.397,0.894,-13.03,-24.65,-18.64,R
,964971,134,0,1845,0.320,0.333,0.879,-8.71,-30.77,-24.75,R
,964981,126,0,1851,0.334,0.242,0.860,5.43,-32.63,-29.06,R
,964991,132,0,1846,0.434,0.281,0.792,17.13,-37.36,-42.52,R
,965001,128,0,1850,0.406,0.396,0.857,23.45,-33.41,-53.39,R
,965011,130,0,1846,0.532,0.285,0.728,50.88,-36.23,-57.50,R
,965021,129,0,1847,0.495,0.329,0.729,65.16,-31.03,-69.30,R
,965031,130,0,1855,0.549,0.311,0.641,78.78,-24.13,-83.04,R
,965041,137,0,1845,0.586,0.304,0.530,83.97,-17.06,-96.28,R
,965051,134,0,1843,0.544,0.358,0.518,90.67,-16.63,-108.86,R
,965061,144,0,1847,0.595,0.377,0.422,88.59,-13.90,-116.81,R
,965071,128,0,1843,0.577,0.439,0.354,85.83,-14.74,-125.56,R
,965081,127,0,1853,0.583,0.478,0.290,77.32,-19.23,-133.59,R
,965091,98,0,1850,0.634,0.521,0.257,61.72,-27.50,-140.31,R
,965101,129,0,1850,0.691,0.546,0.194,50.82,-37.32,-155.94,R
,965111,119,0,1854,0.718,0.556,0.131,30.53,-35.88,-163.59,R
,965121,114,0,1850,1.876,0.933,-0.830,-83.44,26.03,-180.05,R
,965131,116,0,1847,0.663,0.673,0.063,13.43,-22.19,-174.28,R
,965141,117,0,1852,0.630,0.698,0.107,-21.06,0.35,-164.67,R
,965151,118,0,1847,0.566,0.795,0.240,3.78,43.93,-171.88,R
,965161,121,0,1843,0.494,0.781,0.255,-7.35,56.26,-160.02,R
,965171,115,0,1847,0.347,0.751,0.282,-24.51,64.45,-144.14,R
,965181,118,0,1849,0.357,0.819,0.305,-29.01,77.58,-132.41,R
,965191,120,0,1850,0.224,0.844,0.352,-23.30,93.23,-121.12,R
,965201,115,0,1842,0.168,0.880,0.374,-21.76,104.70,-112.92,R
,965211,117,0,1846,0.101,0.918,0.375,-19.88,117.90,-105.45,R
,965221,119,0,1840,0.025,0.954,0.417,-19.38,127.89,-95.50,R
,965231,116,0,1842,-0.077,1.006,0.439,-16.00,138.41,-82.89,R
,965241,120,0,1842,-0.294,1.020,0.508,-18.93,130.36,-68.66,R
,965251,119,0,1850,-0.355,1.125,0.573,-8.02,131.92,-53.97,R
,965261,118,0,1846,-0.216,1.107,0.525,-9.97,140.01,-40.51,R
,965271,117,0,1845,-0.343,1.128,0.593,-18.74,140.61,-27.01,R
,965281,119,0,1845,-0.462,1.197,0.642,-17.07,132.56,-11.47,R
,965291,122,0,1851,-0.446,1.182,0.625,-13.90,125.81,-0.98,R
,965301,115,0,1845,-0.381,1.137,0.573,-24.49,116.73,6.10,R
,965311,90,0,1847,-0.398,1.152,0.616,-38.78,109.55,14.09,R
,965321,129,0,1841,-0.384,1.098,0.642,-44.19,105.89,19.48,R
,965331,120,0,1845,-0.326,1.000,0.642,-53.27,99.37,22.12,R
,965341,127,0,1843,-0.344,0.974,0.674,-60.03,99.54,29.33,R
,965351,125,0,1848,-0.375,0.912,0.696,-62.72,98.41,41.01,R
,965361,113,0,1842,-0.375,0.877,0.709,-63.48,93.48,52.94,R
,965371,127,0,1841,-0.355,0.823,0.723,-64.57,86.29,64.35,R
,965381,129,0,1842,-0.325,0.793,0.741,-67.76,78.62,73.07,R
,965391,126,0,1845,-0.326,0.767,0.757,-70.40,76.21,81.23,R
,965401,123,0,1841,-0.317,0.714,0.765,-74.81,75.09,87.33,R
,965411,122,0,1840,-0.317,0.720,0.791,-78.87,81.09,95.17,R
,965421,121,0,1843,-0.327,0.654,0.797,-81.47,86.51,100.50,R
,965431,121,0,1842,-0.403,0.649,0.782,-89.22,45.80,104.33,R
,965441,119,0,1841,-0.306,0.565,0.817,-89.03,92.29,103.71,R
,965451,124,0,1844,-0.381,0.545,0.759,-89.27,73.72,104.90,R
,965461,119,0,1845,-0.335,0.499,0.882,-75.93,89.52,91.59,R
,965471,121,0,1845,-0.318,0.458,0.861,-78.40,65.40,79.42,R
,965481,112,0,1840,-0.302,0.422,0.937,-70.86,50.82,63.25,R
,965491,87,0,1845,-0.343,0.403,0.937,-76.52,26.50,54.00,R
,965501,90,0,1841,-0.387,0.398,0.957,-76.05,10.45,50.39,R
,965511,113,0,1843,-0.391,0.414,0.973,-77.61,-3.50,52.00,R
,965521,116,0,1840,-0.345,0.429,0.980,-85.00,-12.29,58.53,R
,965531,121,0,1844,-0.354,0.419,0.999,-93.71,-12.11,64.36,R
,965541,119,0,1843,-0.323,0.372,0.994,-105.76,-14.10,71.62,R
,965551,120,0,1846,-0.295,0.348,1.010,-110.77,-14.11,77.83,R
,965561,125,0,1847,-0.156,0.402,0.414,-150.57,-12.92,85.91,R
,965571,113,0,1845,-0.169,0.261,0.967,-100.64,-8.46,68.21,R
,965581,87,0,1846,-0.098,0.226,1.004,-84.92,-11.94,53.04,R
,965591,35,0,1847,-0.084,0.208,1.004,-64.51,-21.36,35.37,R
,965601,66,0,1843,0.093,0.157,1.139,-40.86,-43.73,11.42,R
,965611,74,0,1847,-0.001,0.184,1.010,-22.51,-44.91,-0.43,R
,965621,80,0,1845,-0.023,0.253,0.943,-29.94,-43.50,-4.84,R
,965631,81,0,1846,-0.082,0.360,0.863,-43.56,-41.81,-0.02,R
,965641,80,0,1845,-0.061,0.367,0.899,-45.88,-39.76,8.10,R
,965651,84,0,1845,-0.006,0.396,0.884,-55.48,-40.57,9.68,R
,965661,33,0,1847,0.014,0.400,0.914,-72.46,-42.22,8.36,R
,965671,55,0,1846,0.022,0.330,0.927,-81.09,-37.09,8.72,R
,965681,128,0,1846,-0.015,0.385,0.997,-68.40,-27.10,10.61,R
,965691,0,0,1845,0.070,0.298,1.084,-50.90,-19.91,8.09,R
,965701,0,0,1841,0.021,0.338,1.067,-34.37,-10.58,0.03,R
,965711,0,0,1846,-0.019,0.378,1.070,-20.34,-0.84,-1.99,R
,965721,0,0,1845,-0.046,0.414,1.052,-8.43,5.22,0.33,R
,965731,48,0,1843,-0.061,0.430,1.022,-0.34,7.11,2.24,R
,965741,27,0,1845,-0.071,0.483,0.993,0.76,6.19,5.75,R
,965751,53,0,1841,-0.096,0.526,0.915,-7.94,2.91,8.44,R
,965761,59,0,1846,-0.042,0.481,0.961,-18.06,-4.05,7.55,R
,965771,0,0,1840,-0.024,0.458,0.921,-29.93,-13.30,2.44,R
,965781,0,0,1840,-0.063,0.428,0.925,-35.88,-21.01,0.21,R
,965791,57,0,1845,0.006,0.340,0.985,-29.45,-26.57,-3.21,R
,965801,48,0,1842,0.020,0.346,1.000,-20.34,-23.16,-3.87,R
,965811,0,0,1845,0.024,0.359,0.959,-18.29,-15.00,-1.18,R
,965821,71,0,1842,0.050,0.271,0.990,-1.21,-2.29,-3.15,R
,965831,433,0,1844,0.062,0.265,1.000,13.90,8.16,-5.71,R
,965841,463,0,1846,0.034,0.294,0.969,20.99,15.86,-6.06,R
,965851,560,0,1840,0.008,0.325,0.952,24.90,21.81,-5.62,R
,965861,560,0,1845,-0.023,0.374,0.880,24.21,24.12,-5.25,R
,965871,592,0,1843,-0.003,0.356,0.920,23.69,24.71,-6.54,R
,965881,601,0,1846,-0.017,0.408,0.888,18.74,24.32,-4.90,R
,965891,549,0,1841,-0.077,0.468,0.900,8.48,22.97,1.25,R
,965901,539,0,1842,-0.104,0.458,0.913,-3.82,16.68,7.65,R
,965911,527,0,1840,-0.054,0.466,0.944,-11.47,7.31,8.90,R
,965921,418,0,1840,-0.046,0.443,0.937,-16.00,-1.41,8.27,R
,965931,404,0,1843,-0.032,0.441,0.911,-18.02,-4.63,5.49,R
,965941,429,0,1845,-0.050,0.430,0.920,-22.08,-4.25,2.79,R
,965951,469,0,1841,-0.044,0.399,0.989,-17.76,-3.65,2.87,R
,965961,607,0,1843,-0.026,0.406,1.014,-11.33,-1.44,2.72,R
,965971,373,0,1843,-0.007,0.415,0.969,-7.64,2.18,4.21,R
,965981,0,0,1846,-0.027,0.441,0.924,-6.49,6.94,5.51,R
,965991,246,0,1845,-0.057,0.458,0.881,-13.99,5.43,6.82,R
,966001,547,0,1846,-0.051,0.427,0.923,-20.93,0.62,4.73,R
,966011,551,0,1844,-0.020,0.426,0.900,-16.72,0.91,-1.94,R
,966021,556,0,1844,-0.034,0.387,0.896,-15.84,6.97,-0.92,R
,966031,674,0,1847,-0.043,0.410,0.946,-23.38,9.92,4.06,R
,966041,576,0,1845,0.259,0.155,1.322,9.52,3.87,-8.81,R
,966051,617,0,1841,0.025,0.437,0.921,-6.60,6.01,6.75,R
,966061,714,0,1845,-0.090,0.548,0.883,11.13,18.12,4.82,R
,966071,716,0,1841,0.014,0.449,1.006,-5.30,10.73,13.20,R
,966081,784,0,1843,-0.030,0.506,0.926,-17.81,-1.21,7.60,R
,966091,816,0,1841,-0.042,0.440,0.836,-23.03,-5.27,-1.38,R
,966101,878,0,1843,0.012,0.380,0.882,-30.78,-10.08,-1.83,R
,966111,903,0,1845,0.053,0.411,0.842,-35.22,-13.15,-0.55,R
,966121,901,0,1844,0.007,0.445,0.860,-41.13,-12.03,1.55,R
,966131,897,0,1846,0.008,0.378,0.889,-28.75,-5.81,-5.73,R
,966141,899,0,1843,0.008,0.407,0.907,-11.64,1.97,-7.12,R
,966151,891,0,1844,-0.026,0.416,0.968,-2.86,9.93,-7.99,R
,966161,915,0,1845,-0.051,0.447,0.959,-3.36,10.56,-4.58,R
,966171,906,0,1847,-0.064,0.470,0.980,-5.87,5.68,-0.83,R
,966181,914,0,1845,-0.043,0.463,1.009,-12.29,-3.06,-0.02,R
,966191,911,0,1840,-0.010,0.408,1.026,-20.08,-11.67,-0.70,R
,966201,902,0,1842,-0.037,0.428,1.016,-17.21,-17.49,-1.71,R
,966211,906,0,1845,0.005,0.410,1.022,-15.97,-22.26,-1.15,R
,966221,900,0,1845,0.046,0.404,1.005,-14.32,-22.60,-1.68,R
,966231,903,0,1843,0.038,0.416,0.982,-14.13,-21.20,-2.29,R
,966241,904,0,1847,0.067,0.391,0.990,-13.48,-21.62,-3.97,R
,966251,917,0,1845,0.067,0.399,0.973,-10.49,-24.55,-8.26,R
,966261,928,0,1847,0.021,0.438,0.950,-14.57,-25.38,-6.72,R
,966271,927,0,1852,0.017,0.460,0.956,-22.00,-26.78,-2.52,R
,966281,953,0,1849,0.034,0.448,0.952,-23.87,-27.85,0.50,R
,966291,959,0,1851,0.039,0.439,0.981,-24.37,-28.89,-1.56,R
,966301,963,0,1850,0.043,0.414,0.989,-24.87,-29.91,-3.24,R
,966311,1216,0,1843,0.062,0.350,1.021,-22.34,-31.38,-4.95,R
,966321,1271,0,1847,0.044,0.376,1.042,-20.78,-36.10,-4.31,R
,966331,1252,0,1846,0.028,0.369,1.099,-16.75,-41.93,-9.70,R
,966341,1211,0,1845,0.046,0.363,1.081,-14.71,-46.03,-5.58,R
,966351,1201,0,1843,0.143,0.312,1.166,0.97,-49.16,-13.58,R
,966361,1205,0,1845,0.070,0.435,1.109,0.90,-52.74,-10.77,R
,966371,1217,0,1846,0.102,0.445,1.072,8.36,-49.16,-4.78,R
,966381,1213,0,1841,0.187,0.444,1.055,15.40,-47.44,-7.64,R
,966391,1241,0,1843,0.178,0.467,0.978,12.97,-47.41,-10.23,R
,966401,1184,0,1849,0.138,0.481,0.890,8.81,-44.46,-6.19,R
,966411,1175,0,1845,0.090,0.470,0.842,2.62,-41.47,-0.60,R
,966421,1161,0,1847,0.110,0.414,0.831,2.94,-38.14,-1.16,R
,966431,1110,0,1850,0.115,0.381,0.820,4.56,-38.34,-5.30,R
,966441,848,0,1842,0.120,0.350,0.788,7.29,-37.09,-7.54,R
,966451,864,0,1845,0.127,0.358,0.766,7.97,-33.71,-8.92,R
,966461,791,0,1849,0.167,0.314,0.747,2.07,-29.42,-11.44,R
,966471,783,0,1847,0.159,0.293,0.811,3.39,-23.56,-12.96,R
,966481,749,0,1850,0.142,0.336,0.787,8.36,-16.69,-11.44,R
,966491,763,0,1847,0.131,0.350,0.758,6.74,-8.34,-7.93,R
,966501,757,0,1848,0.133,0.344,0.778,2.38,-5.03,-7.48,R
,966511,772,0,1851,0.115,0.349,0.777,0.70,-3.41,-7.48,R
,966521,896,0,1851,0.121,0.352,0.800,1.84,-0.13,-9.38,R
,966531,857,0,1841,0.126,0.347,0.812,1.80,5.28,-10.20,R
,966541,861,0,1850,0.114,0.367,0.793,2.82,11.52,-10.38,R
,966551,894,0,1844,0.105,0.386,0.830,2.18,16.29,-11.30,R
,966561,841,0,1845,0.097,0.403,0.815,2.70,21.03,-10.72,R
,966571,861,0,1851,0.106,0.379,0.837,2.21,25.55,-11.96,R
,966581,854,0,1851,0.083,0.394,0.827,-1.21,32.03,-11.24,R
,966591,918,0,1847,0.058,0.387,0.841,-6.08,36.77,-9.65,R
,966601,976,0,1843,0.034,0.376,0.833,-7.24,38.09,-10.16,R
,966611,1046,0,1846,-0.010,0.384,0.847,-9.79,39.11,-7.10,R
,966621,998,0,1844,-0.037,0.406,0.861,-10.74,39.55,-3.25,R
,966631,1104,0,1849,-0.063,0.409,0.854,-17.12,36.90,-0.05,R
,966641,1115,0,1846,-0.057,0.386,0.917,-22.25,28.87,-2.03,R
,966651,1187,0,1841,0.009,0.396,1.062,-20.90,17.60,-8.23,R
,966661,1199,19,1845,0.013,0.307,1.027,-14.93,13.86,-14.12,R
,966671,1230,52,1847,0.040,0.331,1.048,-13.58,14.56,-15.09,R
,966681,1405,54,1850,0.052,0.354,1.018,-15.24,10.87,-14.57,R
,966691,1574,112,1845,0.007,0.365,1.043,-21.06,2.47,-10.54,R
,966701,1690,115,1850,-0.011,0.390,1.080,-24.42,5.19,-6.16,R
,966711,1729,172,1843,0.033,0.417,1.139,-26.17,-5.65,-2.23,R
,966721,1922,216,1840,0.049,0.419,1.099,-26.10,-12.86,-2.14,R
,966731,2064,237,1844,0.064,0.447,1.048,-24.98,-16.51,-4.17,R
,966741,2158,240,1844,0.090,0.444,1.022,-20.02,-15.32,-9.24,R
,966751,2201,256,1846,0.102,0.427,0.998,-15.15,-9.49,-12.75,R
,966761,2245,347,1841,0.107,0.436,0.991,-11.77,-3.00,-15.44,R
,966771,2302,367,1844,0.076,0.417,0.973,-5.94,7.52,-17.50,R
,966781,2335,381,1841,0.065,0.433,0.991,-6.00,12.93,-17.32,R
,966791,2352,396,1841,0.022,0.409,1.022,-6.57,13.49,-17.97,R
,966801,2371,417,1842,0.009,0.388,1.014,-6.74,12.59,-20.08,R
,966811,2426,423,1843,-0.007,0.385,0.979,-3.38,7.42,-19.09,R
,966821,2451,455,1842,0.018,0.375,0.934,1.13,5.39,-21.99,R
,966831,2486,449,1842,0.019,0.358,0.909,0.58,3.71,-23.50,R
,966841,2522,467,1847,0.012,0.347,0.877,-2.11,0.59,-23.07,R
,966851,2594,442,1841,0.035,0.356,0.858,-0.22,0.70,-23.33,R
,966861,2609,444,1842,0.018,0.377,0.857,0.50,2.24,-26.96,R
,966871,2640,478,1841,0.030,0.381,0.882,2.81,8.76,-29.54,R
,966881,2686,491,1843,0.042,0.377,0.949,2.32,11.98,-36.51,R
,966891,2710,535,1843,-0.029,0.425,0.956,0.56,13.02,-34.31,R
,966901,2734,557,1850,-0.001,0.389,0.956,3.98,8.38,-32.87,R
,966911,2736,597,1840,0.020,0.362,0.949,5.16,4.93,-34.86,R
,966921,2768,650,1843,0.016,0.395,0.959,6.53,5.23,-34.09,R
,966931,2786,688,1842,0.014,0.357,0.968,3.94,3.17,-34.45,R
,966941,2821,709,1841,0.020,0.382,0.928,5.68,1.09,-31.56,R
,966951,2799,720,1842,0.064,0.356,0.974,5.08,4.58,-31.01,R
,966961,2798,735,1849,0.025,0.386,0.956,2.18,5.66,-29.03,R
,966971,2794,741,1846,0.003,0.420,0.953,1.29,6.59,-25.01,R
,966981,2804,755,1845,-0.008,0.408,0.934,-0.17,3.14,-23.96,R
,966991,2787,767,1841,0.010,0.459,0.923,2.10,1.64,-23.01,R
,967001,2838,784,1844,0.016,0.450,0.965,-6.64,-0.49,-22.19,R
,967011,2818,800,1842,0.033,0.432,0.957,-3.06,-0.65,-23.97,R
,967021,2822,802,1847,0.023,0.476,0.977,-2.54,0.68,-22.43,R
,967031,2833,814,1842,0.026,0.477,0.967,-3.24,1.98,-21.38,R
,967041,2835,821,1843,0.037,0.469,0.955,-2.75,3.13,-19.25,R
,967051,2842,837,1845,0.029,0.451,0.940,-4.14,1.09,-17.28,R
,967061,2842,843,1844,0.026,0.427,0.931,-6.75,-1.33,-16.38,R
,967071,2844,848,1843,0.036,0.444,0.932,-4.84,-1.78,-14.51,R
,967081,2835,855,1840,0.031,0.415,0.914,-8.40,1.43,-13.56,R
,967091,2837,863,1841,0.002,0.380,0.936,-9.32,0.82,-15.21,R
,967101,2840,877,1841,-0.031,0.375,0.896,-8.16,-0.25,-12.63,R
,967111,2841,886,1842,-0.057,0.406,0.855,-9.26,-2.34,-8.20,R
,967121,2862,883,1841,-0.018,0.418,0.899,-10.05,-5.23,-7.59,R
,967131,2861,871,1840,-0.005,0.397,0.922,-16.20,-11.07,-9.19,R
,967141,2866,853,1847,-0.024,0.424,0.946,-16.23,-11.15,-6.58,R
,967151,2879,848,1847,0.019,0.399,0.974,-13.16,-7.91,-6.11,R
,967161,2867,849,1844,0.016,0.380,0.964,-9.73,-2.87,-7.28,R
,967171,2855,834,1847,-0.023,0.398,0.920,-7.27,4.00,-4.72,R
,967181,2861,833,1845,0.004,0.367,0.913,-5.61,5.51,-4.92,R
,967191,2857,837,1841,0.009,0.368,0.901,-3.61,5.72,-4.77,R
,967201,2851,858,1845,0.019,0.400,0.913,-5.74,7.69,-6.08,R
,967211,2858,855,1847,-0.032,0.411,0.942,-8.28,9.39,-4.17,R
,967221,2860,816,1846,-0.033,0.437,0.990,-5.87,10.36,-3.33,R
,967231,2849,816,1843,-0.057,0.438,0.982,-7.01,6.88,-4.89,R
,967241,2851,821,1843,-0.114,0.452,0.982,-12.55,2.91,-3.70,R
,967251,2864,803,1846,-0.070,0.428,0.964,-8.80,-1.79,-2.03,R
,967261,2859,799,1841,-0.050,0.410,0.946,-9.68,-4.11,-2.41,R
,967271,2885,786,1845,-0.034,0.393,0.925,-9.67,-1.33,-2.49,R
,967281,2864,795,1842,-0.016,0.371,0.913,-9.67,-0.03,-3.68,R
,967291,2864,803,1841,-0.021,0.355,0.897,-8.05,3.43,-2.43,R
,967301,2853,832,1845,0.011,0.354,0.910,-7.35,7.11,-3.06,R
,967311,2847,842,1845,-0.020,0.387,0.916,-7.61,10.18,-2.58,R
,967321,2848,836,1841,-0.026,0.362,0.918,-7.90,8.56,-3.38,R
,967331,2850,849,1840,-0.053,0.392,0.949,-7.94,5.60,-3.50,R
,967341,2849,848,1845,-0.036,0.414,0.950,-6.90,1.29,-4.63,R
,967351,2843,866,1840,-0.033,0.412,0.954,-8.22,-1.10,-6.03,R
,967361,2841,865,1840,-0.037,0.418,0.947,-8.05,-1.94,-5.88,R
,967371,2831,859,1840,-0.010,0.401,0.938,-6.77,-2.26,-7.03,R
,967381,2825,871,1840,-0.024,0.403,0.950,-7.88,-0.57,-7.33,R
,967391,2829,857,1846,-0.029,0.395,0.942,-8.00,0.21,-7.19,R
,967401,2826,857,1844,-0.032,0.376,0.906,-4.23,0.39,-7.38,R
,967411,2815,811,1842,-0.051,0.403,0.945,-8.00,1.14,-6.87,R
,967421,2807,786,1840,-0.035,0.378,0.951,-4.03,0.48,-5.19,R
,967431,2803,781,1845,-0.021,0.404,0.946,-3.90,3.17,-4.89,R
,967441,2802,798,1847,-0.022,0.427,0.982,-5.59,6.38,-4.89,R
,967451,2810,811,1846,-0.019,0.430,1.019,-3.70,7.81,-4.67,R
,967461,2816,821,1846,-0.026,0.436,0.995,-3.68,7.77,-6.00,R
,967471,2791,821,1846,-0.054,0.423,0.974,-4.54,6.07,-5.56,R
,967481,2843,817,1845,-0.050,0.416,0.925,-5.01,2.24,-5.85,R
,967491,2849,848,1840,-0.046,0.400,0.925,-5.38,-1.07,-6.61,R
,967501,2860,857,1840,-0.035,0.388,0.917,-5.59,-3.01,-6.54,R
,967511,2850,869,1847,-0.028,0.382,0.895,-6.48,-3.64,-7.06,R
,967521,2854,851,1845,-0.031,0.371,0.902,-6.77,-3.21,-6.63,R
,967531,2854,854,1847,-0.044,0.383,0.906,-6.60,-2.98,-5.62,R
,967541,2864,882,1846,-0.030,0.395,0.922,-5.07,-2.16,-5.54,R
,967551,2850,891,1847,-0.053,0.416,0.940,-7.10,-1.03,-4.80,R
,967561,2853,870,1846,-0.056,0.423,0.962,-7.22,-2.61,-5.10,R
,967571,2855,877,1847,-0.056,0.402,0.978,-7.47,-4.74,-6.45,R
,967581,2860,871,1845,-0.062,0.415,0.969,-6.10,-3.74,-5.73,R
,967591,2865,871,1840,-0.039,0.379,0.948,-5.26,-3.74,-6.40,R
,967601,2869,853,1841,-0.028,0.353,0.907,-1.87,-3.59,-9.22,R
,967611,2878,832,1841,-0.051,0.380,0.928,-1.10,0.12,-7.93,R
,967621,2878,851,1841,-0.032,0.382,0.920,-1.32,0.65,-8.81,R
,967631,2880,848,1840,-0.057,0.390,0.935,-2.66,-0.26,-9.27,R
,967641,2881,848,1845,-0.070,0.388,0.932,-4.11,-3.68,-9.79,R
,967651,2885,875,1845,-0.070,0.391,0.923,-4.26,-6.77,-10.64,R
,967661,2881,869,1847,-0.058,0.395,0.928,-4.28,-6.87,-8.99,R
,967671,2880,869,1846,-0.027,0.400,0.951,-3.88,-5.53,-9.04,R
,967681,2883,893,1850,-0.025,0.402,0.961,-4.03,-3.94,-9.44,R
,967691,2880,895,1847,-0.047,0.419,0.960,-2.08,-1.97,-8.17,R
,967701,2883,895,1846,-0.031,0.415,0.964,0.84,-1.12,-8.32,R
,967711,2877,890,1844,-0.036,0.426,0.944,-0.14,0.07,-8.22,R
,967721,2873,881,1843,-0.036,0.434,0.950,-2.25,0.58,-8.60,R
,967731,2883,890,1847,-0.037,0.421,0.943,-2.63,-0.43,-8.43,R
,967741,2848,865,1847,-0.040,0.417,0.939,-3.59,-1.82,-8.40,R
,967751,2883,863,1842,-0.028,0.416,0.941,-3.16,-1.03,-7.96,R
,967761,2879,870,1847,-0.026,0.412,0.936,-2.63,-1.00,-7.79,R
,967771,2887,870,1845,-0.042,0.407,0.934,-3.61,-1.30,-7.87,R
,967781,2918,866,1846,-0.063,0.421,0.938,-3.16,-1.50,-6.48,R
,967791,2886,870,1841,-0.050,0.414,0.943,-3.32,-2.02,-6.20,R
,967801,2864,896,1843,-0.053,0.418,0.952,-3.21,-1.18,-6.99,R
,967811,2913,867,1845,-0.043,0.411,0.938,-2.35,-1.74,-7.47,R
,967821,2901,870,1845,-0.042,0.392,0.927,-2.60,-2.17,-8.61,R
,967831,2902,867,1845,-0.046,0.409,0.919,-2.20,-0.77,-7.91,R
,967841,2933,849,1842,-0.005,0.404,0.918,1.22,2.32,-8.60,R
,967851,2913,848,1845,-0.026,0.416,0.922,-1.04,5.84,-8.83,R
,967861,2915,849,1845,-0.072,0.430,0.905,-2.71,6.58,-7.64,R
,967871,2907,864,1840,-0.076,0.439,0.937,-0.87,4.22,-6.32,R
,967881,2914,882,1843,-0.079,0.444,0.923,-5.87,-0.81,-6.60,R
,967891,2896,911,1848,-0.069,0.413,0.951,-7.00,-4.61,-7.62,R
,967901,2913,900,1847,-0.058,0.405,0.941,-9.10,-6.58,-8.28,R
,967911,2909,899,1846,-0.046,0.384,0.932,-7.36,-5.27,-8.41,R
,967921,2914,914,1847,-0.043,0.375,0.931,-6.05,-2.16,-7.47,R
,967931,2914,921,1844,-0.054,0.381,0.932,-5.87,0.94,-5.74,R
,967941,2919,921,1847,-0.033,0.384,0.941,-3.61,2.48,-6.96,R
,967951,2926,912,1844,-0.042,0.412,0.972,-3.04,5.14,-5.82,R
,967961,2917,917,1843,-0.060,0.406,0.982,-3.65,5.28,-5.54,R
,967971,2923,912,1843,-0.086,0.420,0.955,-4.89,3.93,-4.37,R
,967981,2928,912,1842,-0.087,0.419,0.929,-5.48,0.47,-4.14,R
,967991,2923,896,1841,-0.083,0.407,0.914,-6.74,-3.74,-5.30,R
,968001,2915,871,1840,-0.078,0.403,0.889,-7.99,-5.62,-6.74,R
,968011,2918,897,1843,-0.064,0.390,0.898,-7.06,-5.06,-6.16,R
,968021,2928,914,1840,-0.057,0.405,0.905,-6.83,-2.40,-5.80,R
,968031,2913,912,1841,-0.060,0.439,0.919,-6.81,1.95,-5.25,R
,968041,2913,931,1845,-0.064,0.442,0.944,-7.93,4.15,-4.19,R
,968051,2914,923,1842,-0.072,0.430,0.946,-8.86,1.42,-6.09,R
,968061,2915,915,1845,-0.083,0.423,0.950,-9.03,-1.24,-5.87,R
,968071,2911,923,1841,-0.074,0.405,0.937,-9.85,-3.91,-6.17,R
,968081,2910,923,1842,-0.047,0.391,0.945,-10.46,-5.45,-7.56,R
,968091,2911,922,1851,-0.044,0.397,0.937,-9.77,-4.00,-7.59,R
,968101,2911,963,1844,-0.045,0.408,0.955,-8.17,0.41,-5.09,R
,968111,2908,965,1846,-0.039,0.396,0.970,-8.58,3.45,-4.26,R
,968121,2913,983,1845,-0.050,0.416,0.967,-6.35,4.06,-5.04,R
,968131,2911,996,1842,-0.069,0.418,0.944,-6.57,2.26,-5.88,R
,968141,2911,1008,1841,-0.062,0.419,0.930,-5.59,-0.39,-5.21,R
,968151,2914,987,1843,-0.054,0.402,0.911,-5.68,-1.39,-7.39,R
,968161,2905,989,1845,-0.085,0.410,0.907,-6.60,-1.07,-7.22,R
,968171,2909,991,1840,-0.061,0.398,0.891,-2.29,-0.87,-7.09,R
,968181,2906,989,1843,-0.069,0.422,0.899,-5.13,-2.57,-6.52,R
,968191,2903,987,1846,-0.057,0.424,0.901,-7.04,-4.69,-5.79,R
,968201,2903,987,1848,-0.025,0.416,0.936,-7.21,-5.65,-6.60,R
,968211,2899,997,1847,-0.036,0.422,0.950,-8.23,-3.71,-6.37,R
,968221,2906,983,1842,-0.039,0.427,0.972,-6.90,-0.86,-6.57,R
,968231,2901,988,1841,-0.040,0.422,0.973,-7.12,1.74,-6.06,R
,968241,2898,987,1849,-0.063,0.427,0.947,-6.78,3.25,-6.87,R
,968251,2896,983,1846,-0.070,0.437,0.953,-5.88,3.14,-6.17,R
,968261,2897,987,1842,-0.053,0.431,0.937,-5.38,2.58,-6.92,R
,968271,2896,986,1845,-0.076,0.414,0.931,-4.40,2.56,-8.09,R
,968281,2897,981,1843,-0.091,0.415,0.914,-4.40,0.48,-7.01,R
,968291,2886,982,1848,-0.068,0.411,0.899,-3.91,-2.31,-7.25,R
,968301,2882,981,1841,-0.070,0.395,0.914,-8.16,-6.11,-7.83,R
,968311,2890,976,1840,-0.044,0.408,0.923,-7.29,-6.61,-7.94,R
,968321,2894,977,1849,-0.026,0.402,0.950,-7.47,-3.10,-6.87,R
,968331,2887,976,1841,-0.042,0.418,0.960,-8.05,1.06,-7.01,R
,968341,2883,976,1842,-0.062,0.416,0.964,-5.85,2.59,-6.40,R
,968351,2877,976,1843,-0.072,0.426,0.945,-6.16,0.77,-6.84,R
,968361,2874,977,1842,-0.072,0.431,0.934,-6.03,-0.87,-8.35,R
,968371,2883,976,1841,-0.058,0.420,0.942,-6.08,-1.85,-8.29,R
,968381,2882,977,1842,-0.049,0.403,0.939,-5.55,-2.57,-9.25,R
,968391,2890,977,1841,-0.070,0.403,0.926,-4.20,-0.08,-8.03,R
,968401,2887,975,1840,-0.068,0.401,0.920,-4.34,-0.45,-7.90,R
,968411,2886,975,1842,-0.089,0.412,0.899,-5.41,-1.70,-7.06,R
,968421,2893,971,1840,-0.073,0.417,0.915,-6.68,-3.56,-7.28,R
,968431,2893,971,1840,-0.071,0.397,0.927,-6.95,-3.78,-8.61,R
,968441,2893,973,1840,-0.073,0.402,0.941,-5.99,-3.44,-8.84,R
,968451,2896,966,1843,-0.073,0.412,0.960,-4.58,-1.07,-7.48,R
,968461,2891,974,1842,-0.074,0.415,0.958,-4.49,-1.13,-7.61,R
,968471,2896,967,1840,-0.072,0.418,0.948,-5.39,-1.38,-7.96,R
,968481,2899,972,1840,-0.076,0.405,0.934,-6.05,-2.26,-8.72,R
,968491,2896,967,1842,-0.069,0.387,0.919,-5.73,-3.15,-9.88,R
,968501,2903,967,1846,-0.072,0.387,0.934,-4.55,-1.87,-10.17,R
,968511,2903,973,1845,-0.072,0.392,0.913,-4.92,-0.75,-10.45,R
,968521,2911,973,1846,-0.093,0.389,0.905,-6.45,-1.42,-9.83,R
,968531,2907,971,1844,-0.100,0.416,0.922,-6.58,-3.44,-7.91,R
,968541,2910,978,1845,-0.038,0.387,0.948,-7.19,-3.71,-8.90,R
,968551,2915,977,1847,-0.056,0.413,0.967,-8.64,0.41,-7.12,R
,968561,2926,944,1844,-0.057,0.412,0.968,-7.84,1.86,-5.48,R
,968571,2928,982,1851,-0.059,0.412,0.957,-7.76,1.60,-4.69,R
,968581,2942,976,1850,-0.066,0.420,0.950,-7.06,2.70,-5.35,R
,968591,2943,973,1849,-0.074,0.429,0.965,-7.53,4.21,-4.11,R
,968601,2942,985,1845,-0.087,0.430,0.942,-7.97,2.93,-5.80,R
,968611,2949,981,1847,-0.090,0.401,0.931,-7.27,0.88,-6.74,R
,968621,2949,985,1839,-0.082,0.397,0.906,-6.52,-0.57,-7.06,R
,968631,2958,983,1840,-0.078,0.390,0.890,-5.77,0.56,-7.04,R
,968641,2955,988,1840,-0.083,0.378,0.886,-7.77,-1.44,-8.58,R
,968651,2955,982,1841,-0.120,0.406,0.878,-9.10,-4.52,-7.39,R
,968661,2962,979,1846,-0.074,0.428,0.939,-10.05,-5.70,-4.69,R
,968671,2959,1005,1847,-0.050,0.425,0.971,-12.64,-6.19,-5.77,R
,968681,2959,1023,1846,-0.080,0.424,0.987,-11.88,-4.05,-4.31,R
,968691,2966,1009,1845,-0.059,0.404,0.959,-9.58,-2.86,-5.07,R
,968701,2962,1009,1840,-0.088,0.404,0.929,-10.57,-0.66,-5.15,R
,968711,2960,974,1842,-0.090,0.392,0.898,-9.76,0.03,-4.96,R
,968721,2962,1007,1847,-0.096,0.394,0.891,-14.71,-2.55,-6.23,R
,968731,2964,1005,1843,-0.111,0.375,0.891,-17.82,-5.68,-5.96,R
,968741,2961,998,1846,-0.084,0.396,0.914,-15.47,-7.23,-6.69,R
,968751,2964,1002,1847,-0.068,0.397,0.960,-14.22,-3.84,-5.61,R
,968761,2958,1014,1843,-0.071,0.385,0.973,-13.15,-0.32,-6.08,R
,968771,2960,1013,1843,-0.070,0.377,0.975,-13.12,0.62,-6.75,R
,968781,2963,1014,1844,-0.098,0.398,0.978,-10.69,0.29,-5.51,R
,968791,2958,1010,1847,-0.078,0.382,0.964,-8.75,-0.71,-6.70,R
,968801,2957,1015,1840,-0.106,0.378,0.956,-9.29,-2.29,-8.16,R
,968811,2951,1018,1841,-0.078,0.367,0.934,-6.13,-4.72,-10.58,R
,968821,2949,1021,1840,-0.083,0.363,0.918,-7.35,-6.39,-11.15,R
,968831,2944,1023,1840,-0.085,0.354,0.898,-5.71,-7.12,-11.88,R
,968841,2933,1015,1842,-0.050,0.354,0.929,-4.39,-5.03,-10.26,R
,968851,2935,1023,1840,-0.050,0.355,0.953,-6.80,-3.64,-8.80,R
,968861,2933,1035,1842,-0.039,0.374,0.978,-5.67,-2.58,-7.04,R
,968871,2935,1039,1840,-0.020,0.406,1.008,-3.77,-0.81,-6.02,R
,968881,2933,1039,1840,-0.040,0.411,1.000,-5.41,-0.61,-6.43,R
,968891,2932,1038,1840,-0.064,0.419,0.989,-3.41,0.65,-5.62,R
,968901,2929,1036,1840,-0.068,0.403,0.956,-2.97,0.74,-6.38,R
,968911,2927,1033,1842,-0.081,0.394,0.938,0.42,1.11,-7.61,R
,968921,2929,1035,1840,-0.104,0.432,0.918,0.01,2.41,-5.50,R
,968931,2926,1040,1843,-0.056,0.408,0.912,-0.46,0.64,-6.32,R
,968941,2917,1037,1842,-0.088,0.394,0.913,-4.78,-2.31,-6.40,R
,968951,2914,1023,1841,-0.064,0.375,0.912,-4.05,-5.12,-5.83,R
,968961,2917,1009,1843,-0.063,0.374,0.890,-6.28,-6.81,-7.15,R
,968971,2913,1011,1840,-0.061,0.366,0.898,-6.80,-7.18,-7.19,R
,968981,2915,1037,1840,-0.080,0.365,0.917,-8.51,-7.24,-8.45,R
,968991,2916,1012,1842,-0.045,0.393,0.952,-4.58,-5.99,-7.99,R
,969001,2916,1009,1844,-0.026,0.405,1.004,-3.15,-0.51,-7.91,R
,969011,2919,1011,1843,-0.098,0.424,1.004,-6.14,2.06,-8.03,R
,969021,2915,1008,1840,-0.116,0.440,0.993,-1.52,2.91,-6.40,R
,969031,2913,1005,1842,-0.107,0.432,0.962,-0.32,0.48,-7.24,R
,969041,2909,990,1840,-0.109,0.401,0.930,-2.08,-3.91,-9.88,R
,969051,2918,957,1842,-0.085,0.363,0.913,0.10,-7.18,-10.93,R
,969061,2922,944,1842,-0.075,0.356,0.877,-0.95,-6.29,-10.86,R
,969071,2901,949,1843,-0.079,0.362,0.867,-1.33,-5.79,-10.77,R
,969081,2897,946,1843,-0.090,0.373,0.871,-4.98,-6.74,-11.15,R
,969091,2907,947,1840,-0.049,0.376,0.909,-4.66,-8.14,-9.88,R
,969101,2909,945,1839,-0.033,0.402,0.970,-5.97,-6.22,-8.52,R
,969111,2911,942,1840,-0.031,0.420,1.010,-4.22,-1.06,-6.12,R
,969121,2903,942,1844,-0.048,0.430,1.021,-2.58,4.13,-5.71,R
,969131,2906,938,1843,-0.084,0.425,0.992,-0.74,5.93,-6.45,R
,969141,2895,944,1840,-0.095,0.415,0.953,0.97,4.26,-7.06,R
,969151,2896,944,1841,-0.107,0.391,0.915,-0.17,1.19,-9.19,R
,969161,2885,945,1846,-0.106,0.395,0.899,0.96,-0.31,-10.29,R
,969171,2883,944,1850,-0.094,0.406,0.912,-0.43,-1.99,-9.88,R
,969181,2880,945,1842,-0.060,0.397,0.911,-1.00,-2.66,-10.66,R
,969191,2891,963,1845,-0.090,0.406,0.936,-2.60,-3.13,-10.26,R
,969201,2896,947,1847,-0.067,0.416,0.938,-0.08,-2.61,-9.35,R
,969211,2897,939,1846,-0.055,0.426,0.961,-0.66,0.73,-8.03,R
,969221,2896,938,1849,-0.047,0.415,0.970,-0.81,2.64,-8.54,R
,969231,2906,937,1847,-0.060,0.407,0.970,-0.42,3.84,-8.20,R
,969241,2911,918,1850,-0.071,0.397,0.963,1.43,4.61,-8.67,R
,969251,2909,953,1845,-0.091,0.391,0.925,-0.89,6.79,-8.00,R
,969261,2911,947,1845,-0.095,0.394,0.920,0.56,6.99,-7.62,R
,969271,2920,958,1842,-0.116,0.429,0.907,-2.39,6.38,-6.17,R
,969281,2927,957,1842,-0.095,0.409,0.910,-2.57,2.44,-8.31,R
,969291,2940,966,1844,-0.105,0.413,0.936,-3.48,1.60,-7.09,R
,969301,2940,962,1841,-0.082,0.402,0.898,-1.29,1.83,-7.71,R
,969311,2938,960,1841,-0.115,0.438,0.906,-1.50,4.93,-6.41,R
,969321,2942,963,1840,-0.099,0.425,0.902,-1.62,4.13,-5.48,R
,969331,2944,935,1839,-0.124,0.423,0.914,-5.81,0.16,-5.64,R
,969341,2943,941,1840,-0.105,0.418,0.900,-6.28,-3.16,-6.02,R
,969351,2942,922,1845,-0.085,0.406,0.915,-7.00,-5.18,-6.55,R
,969361,2939,933,1843,-0.093,0.398,0.931,-7.93,-3.50,-4.93,R
,969371,2946,932,1847,-0.071,0.394,0.942,-4.78,0.15,-5.59,R
,969381,2945,921,1844,-0.109,0.409,0.942,-6.08,1.61,-5.45,R
,969391,2945,915,1843,-0.110,0.405,0.927,-4.26,-1.06,-6.22,R
,969401,2944,914,1843,-0.106,0.406,0.913,-4.78,-3.68,-7.51,R
,969411,2945,910,1848,-0.091,0.393,0.912,-4.14,-4.74,-8.99,R
,969421,2947,906,1842,-0.104,0.425,0.920,-4.22,-1.56,-6.77,R
,969431,2941,905,1840,-0.079,0.414,0.931,-4.08,-1.50,-6.84,R
,969441,2943,925,1845,-0.066,0.401,0.960,-2.22,-0.97,-8.31,R
,969451,2943,906,1847,-0.078,0.416,0.951,-0.90,3.02,-7.88,R
,969461,2948,851,1843,-0.064,0.408,0.946,1.08,6.85,-6.83,R
,969471,2933,905,1847,-0.102,0.423,0.923,-0.37,6.79,-6.95,R
,969481,2933,882,1843,-0.146,0.435,0.903,-3.47,1.17,-4.57,R
,969491,2933,895,1847,-0.109,0.428,0.906,-5.09,-5.16,-5.27,R
,969501,2931,897,1847,-0.115,0.430,0.921,-8.31,-7.36,-5.93,R
,969511,2929,915,1849,-0.114,0.413,0.920,-7.96,-7.87,-6.63,R
,969521,2928,886,1843,-0.079,0.394,0.937,-2.55,-4.29,-6.34,R
,969531,2931,895,1840,-0.076,0.418,0.930,-4.42,1.52,-6.03,R
,969541,2939,895,1840,-0.092,0.409,0.939,-2.98,1.78,-5.80,R
,969551,2942,898,1843,-0.100,0.414,0.921,-4.66,-2.00,-5.15,R
,969561,2943,897,1840,-0.087,0.412,0.948,-6.20,-4.55,-3.96,R
,969571,2944,899,1841,-0.060,0.408,0.952,-5.90,-2.87,-4.78,R
,969581,2942,901,1845,-0.114,0.411,0.954,-7.50,-0.39,-3.58,R
,969591,2957,901,1844,-0.091,0.414,0.923,-3.58,0.56,-5.15,R
,969601,2955,935,1847,-0.100,0.444,0.930,-2.92,4.32,-4.29,R
,969611,2946,897,1846,-0.127,0.454,0.933,-5.10,3.72,-4.09,R
,969621,2949,911,1840,-0.116,0.445,0.930,-3.19,1.72,-3.94,R
,969631,2947,911,1842,-0.138,0.454,0.929,-6.61,-1.15,-3.61,R
,969641,2956,906,1843,-0.106,0.419,0.911,-5.73,-4.34,-4.55,R
,969651,2949,898,1845,-0.117,0.416,0.888,-6.58,-5.79,-4.11,R
,969661,2945,895,1843,-0.101,0.390,0.883,-7.09,-8.61,-4.64,R
,969671,2945,909,1846,-0.095,0.392,0.876,-7.38,-9.04,-4.54,R
,969681,2943,909,1843,-0.076,0.393,0.909,-7.84,-10.34,-5.88,R
,969691,2929,912,1846,-0.070,0.397,0.929,-5.44,-9.29,-6.35,R
,969701,2926,912,1846,-0.062,0.421,0.951,-4.14,-4.52,-4.54,R
,969711,2928,913,1846,-0.062,0.422,0.953,-3.61,-1.32,-5.65,R
,969721,2927,917,1841,-0.089,0.428,0.946,-1.58,-1.15,-5.58,R
,969731,2923,921,1842,-0.068,0.434,0.960,0.12,-0.32,-5.74,R
,969741,2933,924,1842,-0.055,0.440,0.953,-0.60,0.94,-6.69,R
,969751,2931,915,1842,-0.060,0.423,0.949,-0.46,3.97,-6.57,R
,969761,2941,911,1846,-0.097,0.434,0.925,-0.52,8.12,-5.41,R
,969771,2937,912,1843,-0.123,0.429,0.909,0.24,7.39,-6.29,R
,969781,2942,913,1840,-0.156,0.451,0.895,-1.29,4.58,-5.85,R
,969791,2933,917,1842,-0.119,0.446,0.899,-0.57,1.25,-6.81,R
,969801,2941,919,1841,-0.116,0.436,0.912,-3.73,-1.09,-6.86,R
,969811,2933,914,1840,-0.106,0.433,0.921,-5.59,-1.15,-5.76,R
,969821,2938,909,1839,-0.090,0.425,0.935,-4.64,0.94,-3.97,R
,969831,2940,909,1842,-0.088,0.430,0.932,-5.30,2.55,-4.23,R
,969841,2945,912,1840,-0.088,0.425,0.933,-4.92,3.72,-5.04,R
,969851,2960,911,1845,-0.103,0.429,0.948,-3.81,5.20,-4.66,R
,969861,2949,912,1840,-0.115,0.416,0.919,-4.77,4.22,-5.21,R
,969871,2942,911,1841,-0.132,0.427,0.909,-5.82,2.79,-5.06,R
,969881,2934,912,1840,-0.134,0.417,0.890,-6.93,0.33,-4.87,R
,969891,2935,912,1842,-0.131,0.399,0.895,-8.32,-2.83,-5.15,R
,969901,2922,916,1840,-0.121,0.417,0.900,-8.55,-3.64,-3.35,R
,969911,2938,926,1847,-0.101,0.409,0.927,-9.35,-3.73,-3.62,R
,969921,2928,926,1843,-0.129,0.427,0.921,-10.25,-2.57,-2.95,R
,969931,2934,933,1840,-0.132,0.416,0.904,-9.24,-4.25,-2.64,R
,969941,2925,942,1842,-0.138,0.411,0.893,-11.36,-8.92,-4.57,R
,969951,2928,939,1845,-0.149,0.406,0.896,-12.03,-13.27,-5.90,R
,969961,2916,951,1840,-0.163,0.424,0.869,-13.70,-16.22,-5.83,R
,969971,2917,950,1842,-0.107,0.436,0.899,-10.83,-15.49,-4.06,R
,969981,2923,955,1843,-0.067,0.439,0.933,-12.31,-10.97,-5.04,R
,969991,2934,912,1844,-0.082,0.426,0.957,-10.48,-5.44,-3.33,R
,970001,2939,975,1851,-0.078,0.447,1.002,-5.10,0.80,-1.44,R
,970011,2939,959,1843,-0.079,0.449,0.990,-6.40,5.40,-2.43,R
,970021,2943,959,1845,-0.107,0.434,0.975,-5.04,4.61,-3.54,R
,970031,2943,962,1843,-0.131,0.432,0.931,-5.15,0.96,-3.62,R
,970041,2945,924,1840,-0.101,0.419,0.904,-3.90,-0.08,-3.35,R
,970051,2932,923,1840,-0.089,0.402,0.883,-6.43,0.03,-4.69,R
,970061,2932,946,1839,-0.102,0.375,0.875,-7.33,-0.32,-4.02,R
,970071,2943,954,1840,-0.092,0.396,0.870,-9.06,-2.28,-2.87,R
,970081,2937,954,1843,-0.073,0.397,0.893,-9.18,-2.77,-2.83,R
,970091,2944,951,1846,-0.076,0.411,0.909,-10.20,-1.71,-3.35,R
,970101,2959,953,1847,-0.086,0.433,0.942,-12.69,-0.91,-1.13,R
,970111,2960,944,1842,-0.083,0.445,0.969,-12.03,-1.88,-1.90,R
,970121,2960,944,1841,-0.113,0.463,0.986,-10.11,-0.51,-0.46,R
,970131,2960,952,1845,-0.074,0.437,0.979,-8.61,-0.23,-1.83,R
,970141,2958,959,1847,-0.105,0.427,0.957,-7.35,2.07,-1.94,R
,970151,2960,948,1849,-0.123,0.416,0.916,-7.42,1.14,-2.83,R
,970161,2991,947,1847,-0.104,0.403,0.895,-7.00,1.28,-3.19,R
,970171,2979,961,1847,-0.102,0.394,0.890,-8.87,0.10,-4.09,R
,970181,2975,963,1843,-0.130,0.396,0.889,-9.33,-3.53,-3.10,R
,970191,2966,960,1841,-0.101,0.417,0.914,-8.74,-6.95,-1.45,R
,970201,2973,958,1840,-0.069,0.416,0.926,-9.99,-8.19,-2.70,R
,970211,2967,946,1846,-0.076,0.393,0.921,-11.81,-7.56,-3.74,R
,970221,2972,954,1844,-0.088,0.385,0.952,-9.45,-5.68,-1.97,R
,970231,2971,954,1842,-0.070,0.409,0.957,-7.99,-0.28,-1.64,R
,970241,2973,963,1840,-0.084,0.401,0.956,-8.80,3.49,-2.57,R
,970251,2977,961,1840,-0.118,0.406,0.951,-6.35,2.77,-2.05,R
,970261,2979,911,1840,-0.105,0.417,0.947,-5.12,2.22,-2.12,R
,970271,2983,961,1843,-0.102,0.423,0.942,-6.57,4.22,-2.72,R
,970281,2981,966,1840,-0.118,0.412,0.930,-7.27,4.87,-2.60,R
,970291,2980,944,1840,-0.121,0.414,0.931,-6.29,4.45,-3.12,R
,970301,2983,916,1842,-0.104,0.422,0.925,-4.66,4.93,-2.46,R
,970311,2992,912,1847,-0.097,0.419,0.945,-5.64,4.94,-3.65,R
,970321,2995,933,1846,-0.107,0.432,0.964,-2.45,5.78,-3.10,R
,970331,3011,730,1847,-0.084,0.448,0.981,-4.35,6.65,0.12,R
,970341,3013,574,1847,-0.086,0.391,1.054,-6.48,17.83,1.20,R
,970351,3025,496,1851,-0.055,0.437,0.951,1.75,21.45,-1.76,R
,970361,3037,599,1845,-0.145,0.470,0.958,0.41,13.39,-0.16,R
,970371,3040,580,1846,-0.119,0.454,0.909,-4.25,2.94,-2.41,R
,970381,3049,589,1842,-0.144,0.425,0.847,-11.12,-6.46,-4.69,R
,970391,3045,589,1840,-0.131,0.364,0.811,-16.05,-15.78,-6.64,R
,970401,3041,673,1844,-0.122,0.372,0.823,-16.22,-21.74,-6.51,R
,970411,3041,674,1847,-0.076,0.389,0.881,-13.99,-23.53,-1.97,R
,970421,3025,589,1846,-0.028,0.420,0.936,-13.55,-22.28,0.07,R
,970431,3019,589,1851,-0.028,0.450,0.998,-14.22,-20.03,2.94,R
,970441,3024,581,1841,0.018,0.473,1.044,-11.19,-17.97,4.15,R
,970451,2989,569,1846,0.026,0.498,1.083,-6.61,-14.34,7.98,R
,970461,2965,563,1842,0.021,0.466,1.059,-1.32,-10.14,8.49,R
,970471,2956,559,1845,-0.017,0.512,1.011,-3.15,-4.49,14.90,R
,970481,2927,555,1840,0.000,0.494,1.015,-3.67,-11.50,15.68,R
,970491,2881,534,1840,-0.016,0.494,0.973,-9.62,-19.38,16.70,R
,970501,2819,525,1843,-0.058,0.476,0.955,-17.04,-25.39,17.97,R
,970511,2730,493,1845,-0.099,0.440,0.951,-23.50,-33.96,18.78,R
,970521,2641,391,1841,-0.136,0.381,0.955,-26.80,-43.26,17.37,R
,970531,2594,365,1840,-0.142,0.430,1.008,-22.42,-46.39,24.52,R
,970541,2501,243,1840,-0.078,0.405,1.003,-20.95,-39.04,30.42,R
,970551,2431,118,1842,0.008,0.381,1.054,-19.61,-32.36,25.97,R
,970561,2297,0,1846,-0.004,0.352,1.053,-16.34,-20.43,24.94,R
,970571,2042,0,1843,-0.006,0.364,1.062,-14.03,-13.29,22.18,R
,970581,1747,0,1847,-0.033,0.339,1.049,-7.99,-6.78,19.19,R
,970591,1232,0,1845,-0.062,0.336,1.009,-0.13,-0.46,17.11,R
,970601,777,0,1846,-0.045,0.318,0.984,6.07,0.44,14.01,R
,970611,558,0,1851,-0.042,0.325,0.969,5.37,-4.28,8.73,R
,970621,560,0,1845,-0.044,0.296,0.973,4.91,-10.72,2.76,R
,970631,422,0,1843,-0.043,0.265,0.974,1.72,-20.34,-0.69,R
,970641,241,0,1841,-0.044,0.255,0.975,2.55,-26.81,-0.38,R
,970651,218,0,1841,-0.009,0.253,0.978,1.58,-35.76,-1.83,R
,970661,61,0,1840,0.004,0.243,1.003,-2.31,-39.00,-4.46,R
,970671,0,0,1846,-0.003,0.260,0.929,-3.03,-34.60,-4.70,R
,970681,0,0,1846,-0.005,0.312,1.004,-7.87,-32.07,-3.85,R
,970691,0,0,1845,0.019,0.279,1.028,-11.12,-33.30,-7.45,R
,970701,0,0,1841,0.007,0.282,1.001,-13.56,-31.09,-9.54,R
,970711,0,0,1841,0.015,0.292,1.005,-15.03,-27.03,-13.45,R
,970721,0,0,1842,0.014,0.273,0.973,-18.05,-21.39,-17.51,R
,970731,0,0,1850,-0.015,0.275,0.996,-19.10,-11.44,-18.96,R
,970741,0,0,1845,-0.039,0.272,1.008,-20.92,-4.72,-20.20,R
,970751,0,0,1840,-0.046,0.236,1.015,-16.61,-2.51,-22.45,R
,970761,0,0,1840,-0.067,0.264,0.982,-15.26,-1.96,-22.49,R
,970771,0,0,1841,-0.069,0.287,0.958,-11.62,-4.32,-23.09,R
,970781,0,0,1841,-0.060,0.265,0.957,-10.42,-9.52,-23.15,R
,970791,32,0,1840,-0.053,0.270,0.953,-8.86,-13.94,-23.62,R
,970801,32,0,1839,0.001,0.307,0.910,-8.74,-20.80,-30.00,R
,970811,51,0,1840,-0.038,0.302,0.918,-4.23,-23.61,-34.52,R
,970821,48,0,1837,-0.030,0.318,0.890,-2.78,-24.17,-37.44,R
,970831,49,0,1840,-0.006,0.318,0.876,-3.15,-26.07,-40.46,R
,970841,57,0,1835,-0.008,0.353,0.853,-4.23,-24.94,-40.86,R
,970851,54,0,1836,-0.014,0.399,0.859,-4.22,-19.71,-39.06,R
,970861,61,0,1837,-0.001,0.393,0.869,-10.22,-16.25,-37.18,R
,970871,64,0,1838,0.006,0.393,0.916,-13.01,-14.17,-35.04,R
,970881,64,0,1840,0.004,0.391,0.935,-17.32,-13.82,-35.76,R
,970891,67,0,1839,0.002,0.365,0.928,-17.03,-16.10,-39.27,R
,970901,59,0,1833,0.021,0.387,0.926,-14.16,-19.84,-42.75,R
,970911,57,0,1839,0.020,0.390,0.921,-7.36,-20.89,-45.10,R
,970921,33,0,1840,0.013,0.388,0.900,-2.31,-18.40,-44.19,R
,970931,55,0,1840,-0.000,0.400,0.883,1.86,-18.49,-45.24,R
,970941,65,0,1841,-0.002,0.413,0.866,1.75,-20.72,-45.01,R
,970951,53,0,1841,-0.001,0.425,0.872,-0.19,-23.90,-45.28,R
,970961,66,0,1840,-0.002,0.451,0.885,-2.28,-26.26,-43.94,R
,970971,70,0,1842,0.011,0.424,0.891,-3.87,-28.07,-43.94,R
,970981,71,0,1843,0.019,0.444,0.879,-4.69,-28.05,-42.70,R
,970991,59,0,1847,0.031,0.433,0.879,-4.46,-27.79,-41.15,R
,971001,64,0,1845,0.044,0.435,0.881,-3.30,-27.42,-39.15,R
,971011,69,0,1843,0.059,0.432,0.869,-1.82,-27.52,-39.42,R
,971021,66,0,1842,0.070,0.430,0.864,-1.00,-29.07,-40.48,R
,971031,66,0,1845,0.084,0.418,0.854,-0.43,-29.23,-41.50,R
,971041,65,0,1845,0.091,0.413,0.834,2.99,-28.92,-43.21,R
,971051,66,0,1842,0.103,0.414,0.817,6.36,-26.94,-44.03,R
,971061,64,0,1845,0.112,0.417,0.804,8.58,-22.16,-43.88,R
,971071,62,0,1840,0.109,0.433,0.804,10.29,-13.88,-41.27,R
,971081,65,0,1842,0.101,0.438,0.800,9.92,-6.45,-39.10,R
,971091,63,0,1840,0.098,0.432,0.793,7.75,-1.74,-38.26,R
,971101,69,0,1840,0.087,0.463,0.820,4.52,-1.33,-38.69,R
,971111,78,0,1840,0.078,0.463,0.842,-1.42,-5.59,-39.36,R
,971121,65,0,1840,0.077,0.478,0.879,-5.93,-9.36,-38.69,R
,971131,80,0,1839,0.060,0.479,0.918,-9.90,-12.20,-36.16,R
,971141,64,0,1847,0.064,0.467,0.953,-11.15,-11.90,-33.41,R
,971151,75,0,1846,0.054,0.458,0.974,-9.81,-8.74,-31.28,R
,971161,68,0,1844,0.030,0.456,1.016,-6.66,-5.73,-29.51,R
,971171,72,0,1843,0.022,0.452,1.024,-2.48,-4.94,-28.98,R
,971181,78,0,1840,0.017,0.458,1.031,1.13,-5.65,-29.07,R
,971191,80,0,1843,0.003,0.467,1.035,4.84,-8.32,-29.68,R
,971201,80,0,1843,0.006,0.476,1.022,8.42,-10.80,-29.74,R
,971211,70,0,1842,0.024,0.496,1.003,9.40,-12.71,-30.02,R
,971221,66,0,1842,0.014,0.534,0.978,7.75,-13.18,-29.67,R
,971231,65,0,1844,0.014,0.516,0.981,5.72,-12.95,-29.58,R
,971241,80,0,1846,0.013,0.505,0.974,3.14,-13.04,-28.66,R
,971251,70,0,1846,0.014,0.492,0.973,1.60,-14.02,-27.24,R
,971261,75,0,1847,0.004,0.491,0.960,1.19,-12.55,-24.61,R
,971271,69,0,1847,0.006,0.479,0.950,1.11,-10.39,-23.36,R
,971281,71,0,1843,0.004,0.459,0.935,1.37,-9.76,-23.51,R
,971291,70,0,1846,0.008,0.452,0.906,1.19,-11.10,-23.18,R
,971301,70,0,1851,0.002,0.467,0.899,1.05,-10.61,-20.96,R
,971311,70,0,1842,0.006,0.469,0.886,-0.81,-9.07,-17.99,R
,971321,73,0,1844,0.000,0.481,0.883,-4.16,-7.41,-15.01,R
,971331,67,0,1840,0.005,0.482,0.892,-9.13,-6.14,-12.93,R
,971341,73,0,1840,0.015,0.476,0.896,-11.65,-4.91,-11.83,R
,971351,67,0,1840,0.016,0.475,0.898,-13.85,-1.21,-10.23,R
,971361,74,0,1841,0.004,0.470,0.909,-14.87,1.26,-8.67,R
,971371,74,0,1845,0.004,0.465,0.919,-14.26,2.10,-6.63,R
,971381,79,0,1841,0.012,0.457,0.919,-13.16,2.15,-4.41,R
,971391,71,0,1839,0.013,0.446,0.898,-12.00,1.81,-3.51,R
,971401,76,0,1843,0.004,0.453,0.884,-11.74,3.05,-1.74,R
,971411,73,0,1842,-0.007,0.447,0.882,-13.93,3.43,0.56,R
,971421,70,0,1843,-0.004,0.452,0.885,-15.74,2.09,3.37,R
,971431,70,0,1846,0.014,0.440,0.866,-19.09,-0.36,5.23,R
,971441,77,0,1847,0.023,0.417,0.857,-22.95,-1.79,6.78,R
,971451,48,0,1849,0.015,0.427,0.867,-24.57,-2.94,8.70,R
,971461,80,0,1844,0.034,0.398,0.894,-23.06,-4.57,7.55,R
,971471,80,0,1846,0.068,0.388,0.898,-22.45,-7.42,4.68,R
,971481,80,0,1846,0.089,0.398,0.879,-21.70,-9.01,1.71,R
,971491,75,0,1846,0.101,0.397,0.851,-20.81,-8.83,0.04,R
,971501,78,0,1847,0.096,0.412,0.841,-21.16,-4.51,1.39,R
,971511,85,0,1849,0.105,0.414,0.845,-20.31,1.28,3.08,R
,971521,73,0,1851,0.106,0.427,0.854,-19.01,7.80,3.48,R
,971531,78,0,1847,0.090,0.433,0.862,-18.84,12.30,3.46,R
,971541,79,0,1847,0.084,0.443,0.877,-18.89,13.06,3.63,R
,971551,81,0,1851,0.082,0.447,0.878,-20.13,13.32,4.01,R
,971561,78,0,1851,0.065,0.445,0.884,-19.07,14.16,4.78,R
,971571,76,0,1854,0.063,0.437,0.887,-17.00,13.06,4.03,R
,971581,79,0,1850,0.078,0.450,0.885,-16.90,13.02,2.84,R
,971591,76,0,1853,0.064,0.454,0.894,-17.03,11.34,1.51,R
,971601,77,0,1851,0.058,0.454,0.908,-18.28,5.52,1.46,R
,971611,77,0,1845,0.070,0.453,0.899,-19.65,0.64,1.31,R
,971621,78,0,1851,0.078,0.453,0.893,-20.52,-1.62,2.00,R
,971631,75,0,1847,0.069,0.446,0.904,-20.10,0.53,2.67,R
,971641,75,0,1851,0.066,0.447,0.930,-18.93,4.74,3.13,R
,971651,79,0,1840,0.068,0.430,0.955,-16.03,9.49,2.84,R
,971661,80,0,1849,0.065,0.426,0.965,-12.72,12.85,1.57,R
,971671,80,0,1847,0.060,0.417,0.979,-9.59,14.01,-0.77,R
,971681,73,0,1851,0.056,0.408,0.966,-7.03,15.16,-3.59,R
,971691,74,0,1843,0.030,0.406,0.990,-5.10,15.20,-3.97,R
,971701,78,0,1851,0.020,0.400,0.982,-3.09,11.40,-4.09,R
,971711,79,0,1842,0.039,0.401,0.974,-2.40,7.63,-5.01,R
,971721,83,0,1843,0.038,0.389,0.967,-2.16,3.55,-6.43,R
,971731,51,0,1844,0.035,0.395,0.966,-1.55,0.56,-6.80,R
,971741,69,0,1846,0.051,0.387,0.958,-1.10,1.55,-7.41,R
,971751,74,0,1844,0.060,0.374,0.958,-1.12,3.26,-8.41,R
,971761,66,0,1847,0.062,0.371,0.959,0.50,4.42,-9.56,R
,971771,78,0,1844,0.074,0.357,0.957,2.99,5.83,-11.06,R
,971781,79,0,1845,0.090,0.354,0.950,4.59,6.61,-13.12,R
,971791,80,0,1845,0.082,0.359,0.940,6.16,8.15,-14.43,R
,971801,78,0,1842,0.079,0.366,0.925,7.80,9.64,-14.61,R
,971811,80,0,1840,0.069,0.376,0.917,8.55,10.96,-14.64,R
,971821,81,0,1846,0.055,0.386,0.914,7.58,10.47,-13.39,R
,971831,80,0,1842,0.042,0.392,0.908,5.08,8.38,-11.97,R
,971841,74,0,1843,0.043,0.396,0.915,1.94,6.62,-10.17,R
,971851,80,0,1843,0.042,0.396,0.915,0.99,5.75,-8.61,R
,971861,80,0,1851,0.044,0.403,0.919,2.04,5.66,-8.74,R
,971871,76,0,1846,0.061,0.403,0.908,3.03,7.95,-11.85,R
,971881,75,0,1845,0.067,0.386,0.905,2.99,8.15,-16.17,R
,971891,79,0,1845,0.046,0.383,0.908,3.46,6.19,-17.56,R
,971901,78,0,1846,0.021,0.398,0.904,4.29,6.68,-16.06,R
,971911,80,0,1845,0.007,0.408,0.903,4.48,8.03,-12.99,R
,971921,80,0,1847,0.002,0.410,0.905,2.94,7.45,-12.06,R
,971931,79,0,1849,-0.019,0.420,0.904,-0.51,7.11,-11.45,R
,971941,80,0,1846,-0.034,0.417,0.914,-3.67,4.18,-11.77,R
,971951,77,0,1847,-0.044,0.394,0.908,-6.58,-0.07,-12.40,R
,971961,80,0,1840,-0.054,0.393,0.917,-7.58,-2.37,-12.95,R
,971971,76,0,1843,-0.046,0.380,0.909,-7.09,-3.93,-15.58,R
,971981,80,0,1843,-0.031,0.364,0.898,-6.78,-3.23,-18.77,R
,971991,86,0,1840,-0.027,0.343,0.891,-5.85,-0.32,-22.19,R
,972001,82,0,1848,-0.029,0.330,0.879,-4.10,5.42,-24.93,R
,972011,74,0,1843,-0.051,0.349,0.902,-2.58,15.89,-25.35,R
,972021,77,0,1851,-0.090,0.352,0.892,-2.68,25.92,-23.91,R
,972031,80,0,1846,-0.120,0.345,0.898,-7.24,30.07,-23.41,R
,972041,58,0,1850,-0.161,0.356,0.921,-13.12,28.62,-21.25,R
,972051,82,0,1847,-0.178,0.357,0.931,-15.90,23.05,-19.58,R
,972061,82,0,1848,-0.199,0.376,0.924,-19.15,18.53,-16.35,R
,972071,78,0,1843,-0.194,0.375,0.924,-22.93,15.13,-15.15,R
,972081,80,0,1847,-0.183,0.371,0.933,-24.02,13.39,-15.10,R
,972091,80,0,1841,-0.179,0.377,0.949,-22.39,17.19,-15.73,R
,972101,80,0,1840,-0.171,0.374,0.960,-16.31,25.81,-16.51,R
,972111,82,0,1840,-0.171,0.375,0.945,-10.63,36.16,-18.08,R
,972121,82,0,1847,-0.195,0.370,0.927,-9.24,44.90,-17.76,R
,972131,80,0,1846,-0.236,0.395,0.918,-10.11,49.22,-14.03,R
,972141,80,0,1846,-0.259,0.399,0.906,-14.23,50.48,-10.22,R
,972151,80,0,1845,-0.271,0.394,0.907,-21.12,45.57,-6.52,R
,972161,80,0,1850,-0.276,0.392,0.901,-28.60,38.06,-3.62,R
,972171,80,0,1847,-0.277,0.384,0.923,-34.29,28.50,-0.63,R
,972181,90,0,1849,-0.247,0.370,0.934,-38.25,17.52,1.26,R
,972191,80,0,1841,-0.199,0.340,0.949,-39.07,8.67,3.14,R
,972201,76,0,1843,-0.158,0.328,0.939,-35.65,5.20,3.46,R
,972211,79,0,1840,-0.121,0.320,0.938,-30.90,8.76,4.03,R
,972221,80,0,1846,-0.100,0.321,0.937,-25.82,16.99,2.82,R
,972231,79,0,1841,-0.114,0.344,0.937,-24.17,27.25,3.88,R
,972241,80,0,1850,-0.142,0.353,0.939,-22.29,35.48,5.20,R
,972251,74,0,1846,-0.166,0.368,0.961,-23.26,40.74,6.81,R
,972261,98,0,1850,-0.200,0.393,1.005,-23.96,44.16,9.28,R
,972271,83,0,1845,-0.216,0.397,1.040,-20.75,46.70,11.30,R
,972281,84,0,1847,-0.220,0.411,1.074,-17.16,47.49,11.20,R
,972291,91,0,1845,-0.230,0.415,1.064,-12.61,48.67,10.64,R
,972301,80,0,1846,-0.238,0.448,1.070,-9.29,48.96,11.34,R
,972311,87,0,1844,-0.233,0.459,1.077,-8.10,48.41,12.17,R
,972321,81,0,1841,-0.236,0.453,1.079,-11.33,46.42,15.36,R
,972331,81,0,1847,-0.253,0.475,1.080,-15.32,43.23,20.17,R
,972341,82,0,1847,-0.245,0.464,1.075,-19.62,38.35,24.49,R
,972351,80,0,1849,-0.235,0.462,1.065,-24.80,32.01,27.71,R
,972361,83,0,1849,-0.228,0.439,1.065,-31.82,23.87,30.78,R
,972371,80,0,1845,-0.210,0.404,1.058,-33.22,15.72,32.64,R
,972381,83,0,1851,-0.194,0.378,1.051,-34.86,7.61,35.14,R
,972391,80,0,1845,-0.178,0.342,1.036,-34.61,0.80,34.33,R
,972401,81,0,1849,-0.174,0.343,1.025,-32.81,-4.16,32.59,R
,972411,80,0,1843,-0.162,0.315,1.020,-32.72,-10.77,28.82,R
,972421,80,0,1851,-0.146,0.289,1.012,-34.00,-18.94,23.98,R
,972431,81,0,1842,-0.147,0.261,1.004,-34.28,-26.11,21.40,R
,972441,82,0,1847,-0.160,0.252,0.995,-33.35,-30.52,21.31,R
,972451,80,0,1846,-0.157,0.230,0.977,-32.10,-33.10,21.01,R
,972461,80,0,1845,-0.157,0.211,0.958,-31.71,-33.42,21.17,R
,972471,85,0,1846,-0.166,0.200,0.953,-31.64,-30.63,21.55,R
,972481,83,0,1850,-0.177,0.186,0.944,-31.29,-27.96,21.08,R
,972491,80,0,1845,-0.183,0.149,0.926,-28.90,-24.89,19.30,R
,972501,79,0,1847,-0.191,0.131,0.919,-23.94,-22.92,16.32,R
,972511,80,0,1841,-0.196,0.115,0.896,-18.34,-20.25,12.82,R
,972521,85,0,1846,-0.204,0.096,0.885,-12.46,-18.00,8.87,R
,972531,80,0,1845,-0.209,0.074,0.879,-4.64,-14.51,3.86,R
,972541,89,0,1842,-0.225,0.051,0.867,3.61,-10.13,-0.16,R
,972551,82,0,1851,-0.227,0.090,0.822,12.18,-6.45,-4.12,R
,972561,82,0,1853,-0.219,0.063,0.791,22.48,-0.84,-10.35,R
,972571,80,0,1845,-0.227,0.094,0.745,30.07,5.87,-15.01,R
,972581,85,0,1842,-0.237,0.103,0.746,36.96,14.56,-20.41,R
,972591,82,0,1841,-0.259,0.148,0.742,37.78,23.81,-21.79,R
,972601,80,0,1843,-0.292,0.212,0.738,37.83,31.23,-21.65,R
,972611,85,0,1843,-0.329,0.276,0.755,33.63,37.42,-18.90,R
,972621,81,0,1843,-0.345,0.332,0.770,30.09,43.08,-14.95,R
,972631,81,0,1840,-0.356,0.371,0.809,24.87,46.21,-11.71,R
,972641,80,0,1840,-0.350,0.402,0.844,21.16,49.37,-10.40,R
,972651,79,0,1839,-0.333,0.416,0.868,17.13,51.55,-12.38,R
,972661,80,0,1841,-0.325,0.428,0.879,12.47,51.51,-13.97,R
,972671,85,0,1847,-0.336,0.446,0.899,10.16,52.77,-12.87,R
,972681,81,0,1846,-0.344,0.473,0.912,8.32,55.43,-7.87,R
,972691,80,0,1850,-0.359,0.505,0.926,7.71,61.06,-0.11,R
,972701,82,0,1842,-0.358,0.545,0.940,5.49,63.42,7.02,R
,972711,81,0,1841,-0.353,0.570,0.935,-2.66,63.63,11.62,R
,972721,80,0,1841,-0.354,0.602,0.986,-12.66,60.65,15.74,R
,972731,80,0,1840,-0.378,0.598,0.987,-27.35,56.70,19.13,R
,972741,82,0,1840,-0.392,0.573,1.014,-44.75,49.86,22.85,R
,972751,79,0,1842,-0.405,0.559,1.063,-51.70,37.77,24.23,R
,972761,81,0,1845,-0.417,0.511,1.085,-56.61,23.74,25.55,R
,972771,80,0,1841,-0.407,0.460,1.102,-58.03,9.37,28.76,R
,972781,81,0,1845,-0.386,0.440,1.119,-55.06,0.45,33.84,R
,972791,110,0,1843,-0.367,0.397,1.097,-51.64,-4.29,39.78,R
,972801,79,0,1849,-0.325,0.364,1.053,-45.84,-5.78,42.67,R
,972811,75,0,1843,-0.283,0.321,1.018,-43.18,-6.46,41.40,R
,972821,80,0,1842,-0.258,0.287,0.988,-42.13,-5.27,40.42,R
,972831,68,0,1846,-0.237,0.256,0.955,-40.71,-3.16,39.46,R
,972841,64,0,1843,-0.237,0.201,0.910,-39.35,0.64,39.97,R
,972851,80,0,1842,-0.232,0.207,0.884,-40.69,0.07,42.73,R
,972861,74,0,1847,-0.228,0.213,0.880,-40.48,8.35,44.01,R
,972871,67,0,1847,-0.212,0.196,0.876,-42.14,13.31,42.52,R
,972881,65,0,1847,-0.245,0.186,0.854,-43.38,16.44,39.37,R
,972891,69,0,1845,-0.260,0.172,0.833,-43.64,16.10,33.28,R
,972901,68,0,1845,-0.245,0.171,0.862,-39.93,12.77,23.05,R
,972911,78,0,1846,-0.245,0.174,0.857,-38.57,7.19,14.84,R
,972921,71,0,1845,-0.262,0.189,0.861,-32.90,1.95,8.79,R
,972931,66,0,1845,-0.277,0.215,0.859,-27.77,-4.71,4.36,R
,972941,70,0,1840,-0.269,0.246,0.863,-23.65,-11.42,1.62,R
,972951,68,0,1843,-0.281,0.276,0.867,-25.45,-15.13,1.23,R
,972961,67,0,1847,-0.266,0.302,0.876,-28.08,-17.38,2.24,R
,972971,67,0,1845,-0.248,0.320,0.897,-37.33,-15.42,4.38,R
,972981,71,0,1847,-0.233,0.306,0.897,-46.28,-13.09,6.82,R
,972991,67,0,1847,-0.221,0.313,0.920,-54.35,-11.42,7.42,R
,973001,80,0,1853,-0.227,0.294,0.937,-62.20,-11.64,6.76,R
,973011,80,0,1845,-0.253,0.284,0.962,-69.77,-15.18,6.46,R
,973021,81,0,1840,-0.266,0.255,1.010,-74.23,-21.53,6.00,R
,973031,75,0,1850,-0.243,0.225,1.030,-74.31,-29.38,4.15,R
,973041,73,0,1844,-0.231,0.205,1.044,-69.45,-38.42,3.39,R
,973051,80,0,1845,-0.236,0.213,1.051,-64.80,-45.59,1.88,R
,973061,89,0,1847,-0.206,0.202,1.047,-62.45,-52.66,-0.34,R
,973071,80,0,1845,-0.186,0.183,1.048,-62.37,-59.33,-3.83,R
,973081,80,0,1844,-0.150,0.179,1.026,-63.91,-61.12,-7.91,R
,973091,93,0,1845,-0.151,0.149,1.021,-61.94,-58.95,-8.93,R
,973101,74,0,1841,-0.146,0.117,1.013,-57.48,-53.56,-8.00,R
,973111,85,0,1840,-0.146,0.101,1.012,-50.29,-44.52,-5.68,R
,973121,84,0,1842,-0.148,0.104,0.986,-46.37,-35.26,-2.54,R
,973131,85,0,1843,-0.159,0.111,0.979,-47.61,-26.25,1.66,R
,973141,81,0,1843,-0.185,0.118,0.972,-49.33,-18.91,6.59,R
,973151,83,0,1840,-0.180,0.110,0.964,-54.29,-15.33,8.07,R
,973161,80,0,1840,-0.182,0.097,0.979,-61.44,-17.47,5.30,R
,973171,82,0,1846,-0.176,0.031,1.002,-66.97,-26.58,-1.22,R
,973181,80,0,1840,-0.185,0.012,1.022,-66.17,-35.64,-5.24,R
,973191,81,0,1843,-0.169,-0.026,1.015,-56.14,-39.70,-5.79,R
,973201,80,0,1845,-0.138,-0.027,1.042,-43.93,-38.31,-6.16,R
,973211,81,0,1841,-0.130,-0.004,1.030,-34.55,-30.13,-5.54,R
,973221,80,0,1850,-0.125,0.029,1.017,-30.35,-20.13,-5.35,R
,973231,81,0,1840,-0.138,0.034,1.015,-28.89,-10.37,-3.62,R
,973241,80,0,1843,-0.131,0.033,0.993,-28.34,-2.55,-2.75,R
,973251,84,0,1847,-0.139,0.013,1.007,-28.97,2.26,-0.78,R
,973261,80,0,1842,-0.156,0.031,1.021,-30.39,2.94,1.48,R
,973271,80,0,1847,-0.165,0.034,1.036,-31.35,1.49,2.39,R
,973281,80,0,1847,-0.170,0.040,1.046,-32.58,-1.45,2.75,R
,973291,80,0,1842,-0.177,0.045,1.064,-34.87,-3.16,3.78,R
,973301,80,0,1845,-0.167,0.052,1.082,-34.86,-4.28,4.52,R
,973311,80,0,1843,-0.153,0.033,1.097,-35.32,-5.97,4.17,R
,973321,80,0,1845,-0.154,0.011,1.100,-35.90,-7.36,3.78,R
,973331,80,0,1845,-0.149,-0.004,1.106,-34.97,-9.16,3.42,R
,973341,78,0,1845,-0.150,-0.034,1.104,-33.12,-10.94,3.22,R
,973351,81,0,1840,-0.151,-0.035,1.113,-29.12,-12.65,3.71,R
,973361,80,0,1843,-0.139,-0.042,1.106,-22.90,-12.54,3.80,R
,973371,79,0,1842,-0.118,-0.047,1.102,-15.77,-11.74,2.33,R
,973381,78,0,1840,-0.094,-0.042,1.072,-9.65,-10.60,0.18,R
,973391,80,0,1847,-0.084,-0.041,1.048,-6.60,-9.93,-2.38,R
,973401,76,0,1840,-0.088,-0.027,1.027,-5.74,-8.83,-4.09,R
,973411,80,0,1843,-0.096,-0.019,1.008,-5.61,-7.68,-4.69,R
,973421,87,0,1840,-0.105,-0.009,1.005,-5.44,-7.68,-4.05,R
,973431,83,0,1847,-0.105,0.001,0.996,-4.10,-6.94,-3.71,R
,973441,82,0,1846,-0.111,0.006,0.980,-3.32,-5.64,-3.39,R
,973451,80,0,1847,-0.122,0.016,0.985,-6.37,-5.62,-2.20,R
,973461,80,0,1845,-0.138,0.027,0.983,-9.74,-7.10,-0.23,R
,973471,48,0,1845,-0.148,0.019,0.996,-12.97,-9.97,0.62,R
,973481,80,0,1843,-0.125,0.022,1.004,-16.80,-16.08,1.30,R
,973491,80,0,1845,-0.118,0.011,1.003,-17.35,-18.91,0.27,R
,973501,80,0,1842,-0.100,-0.009,1.014,-16.78,-22.08,-1.16,R
,973511,80,0,1845,-0.093,-0.010,1.021,-15.91,-24.71,-3.42,R
,973521,80,0,1842,-0.112,-0.022,0.988,-16.58,-21.90,-1.21,R
,973531,79,0,1842,-0.105,0.038,0.990,-17.16,-18.05,3.07,R
,973541,74,0,1847,-0.115,-0.007,1.017,-13.38,-10.22,5.04,R
,973551,75,0,1845,-0.115,-0.012,1.020,-13.79,-8.08,7.88,R
,973561,71,0,1845,-0.117,-0.007,0.987,-17.06,-7.10,8.23,R
,973571,79,0,1846,-0.095,-0.020,0.994,-14.92,-6.69,7.57,R
,973581,82,0,1841,-0.099,-0.027,1.016,-14.45,-8.36,6.73,R
,973591,80,0,1845,-0.105,-0.024,1.030,-17.29,-9.88,5.51,R
,973601,80,0,1846,-0.095,-0.025,1.032,-17.21,-10.36,6.33,R
,973611,82,0,1846,-0.091,-0.023,1.042,-15.04,-10.69,6.85,R
,973621,80,0,1842,-0.089,-0.031,1.027,-16.17,-11.82,5.81,R
,973631,81,0,1847,-0.081,-0.035,1.016,-21.39,-14.61,5.26,R
,973641,79,0,1843,-0.088,-0.021,1.024,-25.16,-18.43,4.38,R
,973651,80,0,1845,-0.081,-0.050,1.017,-26.77,-20.29,4.35,R
,973661,80,0,1843,-0.048,-0.055,1.026,-27.84,-24.17,1.37,R
,973671,80,0,1843,-0.036,-0.094,1.041,-26.45,-26.61,-3.58,R
,973681,68,0,1841,-0.036,-0.116,1.029,-25.39,-27.91,-7.15,R
,973691,74,0,1845,-0.025,-0.112,1.018,-23.45,-25.61,-6.49,R
,973701,90,0,1842,-0.001,-0.128,1.025,-21.71,-20.71,-5.71,R
,973711,86,0,1845,0.017,-0.123,0.999,-18.71,-14.31,-5.94,R
,973721,70,0,1846,0.013,-0.120,0.987,-18.13,-8.78,-5.74,R
,973731,80,0,1845,0.006,-0.108,0.976,-16.11,-1.90,-4.96,R
,973741,71,0,1841,0.001,-0.117,0.970,-14.05,3.54,-5.18,R
,973751,74,0,1844,-0.049,-0.045,0.894,-12.93,10.26,-2.89,R
,973761,70,0,1846,-0.047,-0.042,0.967,-12.55,14.85,-2.96,R
,973771,67,0,1841,-0.063,-0.064,0.975,-17.90,10.82,-3.97,R
,973781,64,0,1841,-0.088,-0.038,0.969,-21.45,8.76,-3.64,R
,973791,66,0,1842,-0.086,-0.038,0.976,-23.41,9.11,-2.95,R
,973801,65,0,1846,-0.066,-0.065,1.010,-20.06,11.02,-3.36,R
,973811,66,0,1847,-0.079,-0.061,0.985,-18.86,13.72,-4.81,R
,973821,66,0,1842,-0.079,-0.102,0.997,-22.89,13.49,-6.03,R
,973831,58,0,1849,-0.085,-0.122,1.063,-16.93,13.17,-9.09,R
,973841,258,0,1843,-0.093,-0.121,1.051,-11.42,14.45,-9.90,R
,973851,458,0,1846,-0.086,-0.108,1.078,-6.11,15.02,-10.45,R
,973861,507,0,1846,-0.076,-0.101,1.072,-2.03,16.99,-10.74,R
,973871,567,0,1843,-0.080,-0.058,1.083,-5.76,15.77,-11.21,R
,973881,661,0,1847,-0.043,-0.133,1.062,-8.58,15.25,-12.46,R
,973891,662,0,1849,-0.089,-0.144,1.052,-2.77,15.90,-19.90,R
,973901,667,0,1844,-0.083,-0.143,1.096,1.11,14.30,-23.38,R
,973911,586,0,1844,-0.085,-0.093,1.067,4.53,16.47,-22.70,R
,973921,624,0,1847,-0.136,-0.077,0.996,3.39,21.68,-16.51,R
,973931,643,0,1847,-0.118,-0.079,1.005,8.41,31.39,-18.89,R
,973941,656,0,1851,-0.130,-0.118,1.033,3.05,30.76,-19.80,R
,973951,666,0,1849,-0.111,-0.136,1.038,4.04,27.86,-24.37,R
,973961,685,0,1846,-0.115,-0.126,1.018,14.04,27.48,-27.83,R
,973971,677,0,1851,-0.141,-0.102,0.984,17.87,31.58,-27.87,R
,973981,682,0,1851,-0.182,-0.039,0.978,17.52,34.77,-24.20,R
,973991,673,0,1853,-0.141,-0.049,0.983,18.03,37.43,-23.47,R
,974001,672,0,1844,-0.135,-0.014,0.945,21.07,43.86,-27.15,R
,974011,711,0,1842,-0.170,-0.030,0.922,19.31,49.37,-28.74,R
,974021,704,0,1845,-0.116,-0.040,0.959,22.48,48.38,-32.98,R
,974031,704,0,1843,-0.123,-0.068,1.004,26.44,49.09,-41.47,R
,974041,715,0,1844,-0.351,0.013,1.100,22.85,50.21,-48.45,R
,974051,749,0,1840,-0.196,-0.024,1.039,21.83,47.81,-45.82,R
,974061,802,0,1841,-0.205,-0.053,1.123,26.47,42.90,-41.97,R
,974071,868,0,1841,-0.232,-0.065,1.036,26.18,37.11,-38.29,R
,974081,917,0,1842,-0.301,0.034,1.027,18.39,34.39,-30.78,R
,974091,1041,0,1845,-0.337,0.041,1.032,9.07,17.97,-25.62,R
,974101,1143,0,1841,-0.299,0.046,1.030,-1.90,4.07,-24.66,R
,974111,1223,0,1841,-0.287,0.020,0.995,-10.29,-9.64,-27.70,R
,974121,1173,0,1840,-0.238,-0.017,1.000,-17.38,-21.82,-35.12,R
,974131,1250,0,1843,-0.236,-0.079,1.013,-15.71,-24.60,-38.35,R
,974141,1344,0,1841,-0.198,-0.106,0.959,-9.15,-19.36,-40.03,R
,974151,1412,0,1840,-0.151,-0.100,1.018,-2.23,-8.11,-39.93,R
,974161,1606,0,1847,-0.089,-0.146,1.032,11.17,7.60,-42.43,R
,974171,1645,0,1844,-0.073,-0.109,1.001,20.90,31.58,-43.76,R
,974181,1680,0,1842,-0.156,-0.055,1.042,23.78,50.06,-34.06,R
,974191,1743,0,1845,-0.230,0.002,1.005,24.18,54.16,-24.99,R
,974201,1753,0,1840,-0.234,0.022,1.005,21.43,42.42,-26.26,R
,974211,1802,0,1845,-0.226,-0.004,1.048,13.32,30.58,-27.68,R
,974221,1815,0,1840,-0.308,0.067,1.052,0.45,15.11,-24.45,R
,974231,1959,0,1840,-0.298,0.021,1.025,-1.53,-2.14,-22.09,R
,974241,1981,0,1842,-0.214,-0.087,1.001,-4.45,-14.42,-22.06,R
,974251,2001,0,1840,-0.206,-0.051,1.007,-12.35,-21.13,-28.09,R
,974261,2047,0,1846,-0.196,-0.087,1.019,-9.48,-15.42,-29.64,R
,974271,2055,0,1845,-0.185,-0.101,1.022,-2.77,-6.52,-26.74,R
,974281,2159,0,1843,-0.172,-0.119,1.047,4.45,3.39,-22.99,R
,974291,2178,0,1846,-0.121,-0.091,1.049,14.38,17.66,-22.17,R
,974301,2186,0,1846,-0.105,-0.318,1.049,25.45,28.00,-31.30,R
,974311,2188,0,1843,-0.450,0.077,1.026,16.73,41.29,-10.84,R
,974321,2235,0,1845,-0.298,0.084,0.995,17.13,34.00,-8.35,R
,974331,2233,0,1845,-0.325,0.086,0.905,6.44,10.42,-20.11,R
,974341,2210,0,1841,-0.334,0.061,0.955,1.14,-8.89,-28.38,R
,974351,2243,0,1843,-0.296,0.003,0.990,-6.42,-21.56,-26.72,R
,974361,2253,0,1840,-0.278,-0.008,1.035,-13.04,-26.42,-20.98,R
,974371,2293,0,1841,-0.222,0.016,1.040,-8.71,-22.98,-18.26,R
,974381,2306,0,1840,-0.136,-0.076,1.070,-7.61,-12.75,-17.68,R
,974391,2305,0,1842,-0.192,-0.094,1.044,-7.21,-2.40,-14.06,R
,974401,2315,0,1841,-0.228,-0.037,0.977,-2.46,2.99,-8.96,R
,974411,2311,0,1840,-0.224,-0.039,1.034,1.34,7.61,-6.57,R
,974421,2316,0,1839,-0.242,-0.048,0.987,-3.70,7.05,-6.17,R
,974431,2329,0,1840,-0.309,-0.001,0.984,-3.82,1.87,-7.99,R
,974441,2342,0,1840,-0.319,0.016,0.946,-5.42,-3.32,-10.08,R
,974451,2335,0,1840,-0.374,0.112,0.890,-10.58,-7.15,-5.61,R
,974461,2338,0,1841,-0.169,0.177,1.126,-15.84,-23.61,-4.25,R
,974471,2433,0,1842,-0.205,-0.091,1.036,-13.45,-32.48,-4.96,R
,974481,2455,0,1843,-0.041,-0.051,0.932,-5.99,-18.25,-17.35,R
,974491,2464,0,1844,-0.329,0.068,0.992,-12.29,19.46,-5.10,R
,974501,2511,2,1844,-0.223,-0.055,1.031,-8.77,14.91,-2.98,R
,974511,2526,1,1846,-0.217,-0.044,1.040,-14.37,-0.74,-3.22,R
,974521,2546,0,1841,-0.182,-0.042,1.008,-6.87,-0.39,-6.19,R
,974531,2559,3,1847,-0.185,-0.060,1.001,-10.43,9.00,-3.42,R
,974541,2593,77,1841,-0.229,-0.001,0.972,-6.78,12.21,1.88,R
,974551,2549,144,1843,-0.183,-0.046,1.016,-5.32,17.72,5.57,R
,974561,2597,90,1841,-0.201,-0.053,0.990,-8.29,23.03,6.87,R
,974571,2592,74,1841,-0.271,-0.012,0.977,-7.94,20.13,6.17,R
,974581,2593,162,1840,-0.312,0.019,0.946,-9.55,11.28,5.75,R
,974591,2595,138,1840,-0.389,0.093,0.910,-11.79,2.48,5.20,R
,974601,2593,139,1841,-0.275,-0.002,0.988,-17.38,-10.86,-1.77,R
,974611,2600,118,1839,-0.301,0.000,0.960,-18.39,-22.69,-7.22,R
,974621,2589,126,1840,-0.289,0.012,1.003,-15.27,-21.12,-8.52,R
,974631,2602,138,1838,-0.221,-0.045,1.012,-12.34,-17.07,-7.73,R
,974641,2604,176,1840,-0.195,-0.060,1.017,-8.78,-13.82,-9.58,R
,974651,2606,197,1841,-0.192,-0.062,1.019,-7.73,-7.01,-9.01,R
,974661,2613,187,1840,-0.209,-0.054,1.005,-7.94,-2.95,-8.14,R
,974671,2611,206,1840,-0.248,-0.044,1.015,-4.90,0.64,-5.99,R
,974681,2621,199,1839,-0.236,-0.042,1.020,-3.53,1.11,-6.17,R
,974691,2627,217,1837,-0.233,-0.033,0.998,-3.32,2.56,-7.64,R
,974701,2641,251,1840,-0.254,-0.002,1.009,-4.57,4.51,-5.61,R
,974711,2631,277,1841,-0.242,-0.008,0.989,-5.76,5.17,-4.29,R
,974721,2637,281,1841,-0.261,-0.023,0.987,-7.73,3.58,-3.93,R
,974731,2630,283,1842,-0.296,-0.018,0.985,-11.01,-0.14,-2.57,R
,974741,2633,293,1844,-0.290,-0.030,0.970,-9.74,-5.23,-1.42,R
,974751,2642,373,1840,-0.256,-0.019,0.990,-10.14,-7.84,-1.10,R
,974761,2656,373,1841,-0.229,-0.035,1.004,-8.95,-8.25,-3.19,R
,974771,2653,383,1843,-0.232,-0.052,0.996,-7.64,-6.92,-4.14,R
,974781,2640,387,1840,-0.226,-0.047,1.008,-6.80,-2.97,-3.77,R
,974791,2670,391,1840,-0.231,-0.035,0.983,-6.03,-0.39,-3.91,R
,974801,2654,403,1840,-0.235,-0.029,1.000,-6.26,0.03,-4.22,R
,974811,2670,387,1840,-0.243,-0.029,0.979,-8.23,-1.79,-4.16,R
,974821,2707,401,1840,-0.251,-0.008,0.973,-10.31,-5.13,-4.57,R
,974831,2702,402,1840,-0.235,-0.031,1.039,-7.88,-6.26,-4.60,R
,974841,2704,410,1840,-0.225,-0.026,1.020,-8.23,-5.84,-5.27,R
,974851,2717,451,1840,-0.252,-0.032,1.010,-7.15,-3.81,-2.41,R
,974861,2751,465,1838,-0.250,-0.024,1.006,-8.19,-0.95,0.39,R
,974871,2741,455,1840,-0.252,-0.013,0.966,-7.96,-0.03,-1.07,R
,974881,2741,464,1843,-0.270,-0.024,0.964,-9.96,-3.58,-1.56,R
,974891,2747,473,1842,-0.264,-0.047,0.974,-8.28,-7.32,-2.90,R
,974901,2736,492,1846,-0.240,-0.049,0.983,-7.58,-10.65,-5.16,R
,974911,2750,478,1842,-0.243,-0.048,0.985,-8.77,-11.49,-5.62,R
,974921,2743,470,1845,-0.213,-0.051,1.017,-5.45,-8.28,-5.28,R
,974931,2743,486,1840,-0.205,-0.049,1.043,-4.93,-2.58,-4.74,R
,974941,2743,471,1845,-0.206,-0.061,1.045,-2.77,2.51,-4.37,R
,974951,2744,470,1844,-0.244,-0.045,1.024,-2.81,4.51,-2.43,R
,974961,2737,477,1840,-0.267,-0.040,1.004,-2.46,4.47,-1.16,R
,974971,2746,469,1840,-0.271,-0.048,0.965,-2.45,1.43,-2.41,R
,974981,2746,457,1841,-0.286,-0.045,0.961,-5.19,-3.13,-3.42,R
,974991,2749,457,1841,-0.301,-0.031,0.995,-4.49,-7.42,-3.44,R
,975001,2755,464,1840,-0.283,-0.004,1.011,-2.97,-9.84,-2.90,R
,975011,2752,466,1846,-0.263,-0.024,1.014,-5.18,-11.64,-3.35,R
,975021,2695,459,1844,-0.232,-0.028,1.004,-6.83,-14.03,-5.13,R
,975031,2756,462,1845,-0.224,-0.026,1.006,-4.22,-12.39,-4.48,R
,975041,2745,463,1849,-0.207,-0.040,1.001,-7.45,-11.58,-4.28,R
,975051,2736,462,1841,-0.218,-0.037,0.991,-5.53,-9.09,-4.37,R
,975061,2745,464,1842,-0.193,-0.029,0.997,-1.84,-4.26,-2.38,R
,975071,2747,464,1842,-0.187,-0.040,1.003,-2.51,-1.44,-3.41,R
,975081,2758,461,1843,-0.246,-0.030,1.009,-5.55,-0.98,-0.89,R
,975091,2763,461,1841,-0.259,-0.023,1.022,-1.12,-1.35,1.30,R
,975101,2739,457,1846,-0.257,0.004,1.024,-2.46,-2.97,2.76,R
,975111,2737,453,1851,-0.256,0.011,1.043,-3.21,-8.48,1.65,R
,975121,2731,464,1849,-0.301,-0.022,0.989,-0.80,-14.26,0.15,R
,975131,2704,476,1853,-0.258,-0.035,0.957,-7.12,-16.36,-2.25,R
,975141,2684,465,1851,-0.256,-0.019,0.974,-3.79,-14.08,-0.02,R
,975151,2681,466,1850,-0.217,-0.019,0.966,-3.09,-12.00,0.07,R
,975161,2663,453,1849,-0.241,0.011,0.993,-7.21,-13.01,-0.80,R
,975171,2653,468,1851,-0.185,-0.056,1.041,-8.06,-16.40,0.10,R
,975181,2661,479,1846,-0.189,-0.022,1.054,-5.06,-15.26,-0.26,R
,975191,2673,471,1847,-0.206,-0.024,1.052,-4.02,-12.16,1.51,R
,975201,2682,495,1850,-0.211,-0.039,1.040,-1.39,-10.11,2.67,R
,975211,2709,473,1843,-0.205,-0.035,1.032,-0.08,-7.82,3.30,R
,975221,2704,479,1846,-0.193,-0.062,0.991,0.01,-5.56,2.56,R
,975231,2711,496,1845,-0.213,-0.056,0.967,-1.81,-7.20,2.00,R
,975241,2715,477,1843,-0.202,-0.042,0.957,-0.83,-8.16,1.63,R
,975251,2713,488,1842,-0.218,-0.015,1.006,-3.03,-7.71,1.66,R
,975261,2706,490,1842,-0.235,0.017,1.042,-1.64,-9.42,3.08,R
,975271,2713,490,1840,-0.217,0.036,1.031,0.24,-9.62,3.84,R
,975281,2710,499,1843,-0.199,0.015,1.002,-1.50,-10.19,1.92,R
,975291,2741,487,1840,-0.180,-0.036,0.987,-2.75,-14.52,-2.55,R
,975301,2704,490,1841,-0.179,-0.045,0.959,-3.07,-14.74,-2.19,R
,975311,2705,491,1840,-0.194,-0.037,0.966,-2.80,-10.91,-0.63,R
,975321,2726,494,1843,-0.176,-0.051,0.981,-1.29,-7.55,0.78,R
,975331,2733,494,1842,-0.192,-0.014,0.968,-2.40,-6.75,2.21,R
,975341,2726,473,1844,-0.163,-0.019,0.971,0.06,-4.02,1.30,R
,975351,2741,469,1842,-0.160,-0.020,0.979,-2.54,-3.01,-1.87,R
,975361,2751,464,1842,-0.172,-0.035,0.974,-2.39,-3.94,-3.99,R
,975371,2737,467,1845,-0.159,-0.045,0.928,-2.55,-2.49,-6.37,R
,975381,2741,480,1844,-0.165,-0.042,0.954,-4.84,0.42,-6.81,R
,975391,2738,473,1847,-0.185,-0.034,0.971,-6.66,4.12,-4.75,R
,975401,2743,468,1847,-0.189,-0.014,1.000,-8.11,5.54,-2.60,R
,975411,2742,467,1849,-0.210,-0.008,1.028,-11.24,3.49,-3.45,R
,975421,2743,471,1840,-0.192,0.042,0.983,-9.24,-4.19,-3.76,R
,975431,2738,481,1840,-0.194,0.020,1.059,-5.62,-1.53,-2.43,R
,975441,2732,479,1842,-0.170,0.015,1.017,-8.06,-4.77,-5.65,R
,975451,2733,496,1846,-0.179,-0.010,1.007,-10.14,-5.47,-5.67,R
,975461,2730,480,1851,-0.161,-0.025,1.004,-8.52,-3.41,-4.34,R
,975471,2729,481,1847,-0.162,-0.025,0.989,-7.01,3.11,-4.46,R
,975481,2727,480,1841,-0.186,-0.031,1.015,-7.67,6.96,-4.23,R
,975491,2733,443,1845,-0.195,-0.033,1.009,-5.39,7.46,-4.83,R
,975501,2723,471,1841,-0.210,-0.034,1.016,-7.90,6.09,-5.47,R
,975511,2720,481,1841,-0.233,-0.018,1.027,-7.01,3.49,-4.78,R
,975521,2712,478,1840,-0.236,-0.015,1.025,-5.55,0.47,-5.19,R
,975531,2714,477,1840,-0.238,-0.009,1.035,-4.22,-2.03,-5.58,R
,975541,2707,483,1840,-0.212,0.014,0.884,0.33,-0.11,-7.68,R
,975551,2701,526,1840,-0.228,0.030,1.016,-12.37,-2.22,-5.16,R
,975561,2703,526,1839,-0.216,-0.038,1.059,-2.26,-2.61,-4.28,R
,975571,2704,531,1840,-0.186,-0.011,0.971,-5.45,0.06,-3.54,R
,975581,2701,527,1842,-0.205,0.008,0.989,-6.97,1.23,-3.42,R
,975591,2699,486,1841,-0.183,-0.021,0.978,-8.81,-0.36,-6.29,R
,975601,2700,486,1841,-0.205,-0.026,0.977,-10.89,-0.11,-7.36,R
,975611,2698,483,1839,-0.213,-0.027,1.001,-8.17,0.55,-5.42,R
,975621,2690,485,1846,-0.205,-0.024,1.021,-7.24,0.67,-4.87,R
,975631,2693,487,1842,-0.217,-0.020,1.046,-6.95,1.13,-4.43,R
,975641,2690,486,1850,-0.195,-0.021,1.037,-5.55,0.82,-5.03,R
,975651,2698,506,1844,-0.224,0.001,1.062,-7.70,0.27,-3.22,R
,975661,2694,543,1843,-0.206,-0.003,1.043,-4.61,-0.32,-2.80,R
,975671,2697,542,1843,-0.204,0.007,1.027,-5.39,-0.72,-3.77,R
,975681,2689,511,1846,-0.203,0.003,0.990,-6.75,-1.70,-5.13,R
,975691,2690,540,1846,-0.225,0.001,0.994,-9.15,-1.87,-5.24,R
,975701,2677,540,1847,-0.209,-0.021,0.990,-7.45,-2.95,-5.07,R
,975711,2660,543,1844,-0.213,-0.014,0.984,-7.24,-2.08,-4.31,R
,975721,2651,464,1840,-0.208,-0.028,0.992,-8.42,-1.78,-4.22,R
,975731,2656,496,1845,-0.201,-0.040,1.006,-6.22,-1.47,-5.50,R
,975741,2662,530,1842,-0.209,-0.029,1.011,-7.53,0.77,-4.96,R
,975751,2665,543,1843,-0.221,-0.023,1.012,-7.41,0.74,-4.26,R
,975761,2665,542,1841,-0.210,-0.028,1.002,-7.61,-0.98,-3.93,R
,975771,2666,558,1845,-0.226,-0.013,1.004,-11.16,-3.65,-3.51,R
,975781,2669,511,1842,-0.209,-0.023,0.997,-9.68,-7.38,-4.63,R
,975791,2671,550,1844,-0.194,-0.035,1.004,-10.61,-7.38,-4.06,R
,975801,2669,541,1846,-0.173,-0.034,1.010,-8.45,-4.65,-5.13,R
,975811,2672,543,1842,-0.212,-0.029,1.015,-7.97,0.01,-4.83,R
,975821,2678,546,1845,-0.206,-0.019,1.004,-4.26,2.29,-3.71,R
,975831,2691,545,1844,-0.212,-0.016,1.004,-6.43,3.66,-3.65,R
,975841,2689,545,1843,-0.229,-0.022,0.995,-8.68,1.71,-3.87,R
,975851,2658,547,1843,-0.238,-0.002,0.977,-7.44,-1.01,-4.63,R
,975861,2683,538,1845,-0.213,-0.023,1.017,-4.98,-2.05,-6.08,R
,975871,2678,541,1843,-0.227,-0.013,0.990,-9.33,-2.10,-5.88,R
,975881,2682,549,1845,-0.228,-0.026,1.017,-8.34,-3.47,-4.99,R
,975891,2691,561,1843,-0.207,-0.018,1.010,-6.87,-4.28,-4.74,R
,975901,2693,542,1841,-0.192,-0.025,1.003,-7.65,-4.60,-5.35,R
,975911,2688,537,1840,-0.206,-0.019,1.006,-8.48,-5.59,-4.99,R
,975921,2690,533,1843,-0.189,-0.021,1.007,-6.32,-3.42,-4.25,R
,975931,2699,502,1847,-0.191,-0.013,1.004,-10.26,-1.39,-4.02,R
,975941,2695,478,1853,-0.187,-0.031,1.012,-9.82,0.24,-3.71,R
,975951,2698,481,1851,-0.204,-0.027,1.023,-10.17,1.23,-2.46,R
,975961,2704,493,1844,-0.109,0.037,0.866,-15.53,-3.10,-3.62,R
,975971,2711,482,1846,-0.213,-0.035,1.023,-9.59,-1.41,-1.77,R
,975981,2715,471,1843,-0.229,-0.030,0.989,-9.47,-2.68,-2.06,R
,975991,2711,496,1843,-0.239,-0.029,0.993,-10.14,-4.80,-3.03,R
,976001,2713,464,1842,-0.235,-0.014,0.993,-8.20,-6.19,-3.19,R
,976011,2709,528,1840,-0.243,0.002,0.952,-7.00,-2.94,-2.70,R
,976021,2704,492,1840,-0.261,0.018,0.946,-9.93,-6.42,-2.46,R
,976031,2714,495,1844,-0.234,-0.005,0.973,-13.87,-4.43,-1.24,R
,976041,2672,492,1843,-0.247,0.047,0.951,-13.42,-4.75,-1.82,R
,976051,2672,490,1840,-0.187,-0.039,1.049,-17.22,-6.84,-0.20,R
,976061,2649,491,1841,-0.172,-0.075,1.024,-15.35,-7.38,-1.62,R
,976071,2659,501,1846,-0.139,-0.083,1.051,-13.33,-6.55,-4.32,R
,976081,2646,491,1846,-0.139,-0.093,1.049,-10.42,-1.53,-4.72,R
,976091,2619,491,1845,-0.164,-0.073,1.038,-9.35,3.98,-1.42,R
,976101,2671,494,1845,-0.168,-0.052,1.016,-7.30,7.92,-0.29,R
,976111,2679,494,1845,-0.232,-0.031,1.019,-6.40,9.35,2.00,R
,976121,2693,491,1842,-0.241,-0.021,1.005,-5.97,7.49,2.07,R
,976131,2669,487,1843,-0.235,-0.002,1.001,-4.63,2.99,0.76,R
,976141,2675,482,1847,-0.244,-0.003,0.991,-7.56,-1.79,0.04,R
,976151,2658,480,1849,-0.246,-0.007,0.990,-9.30,-5.68,-1.58,R
,976161,2675,484,1847,-0.233,-0.037,1.008,-10.75,-7.52,-1.45,R
,976171,2673,553,1846,-0.218,0.003,0.963,-7.27,-5.06,-3.09,R
,976181,2692,498,1845,-0.186,-0.040,1.055,-4.28,-4.87,-4.54,R
,976191,2676,499,1842,-0.193,-0.063,1.017,-7.00,-6.75,-2.81,R
,976201,2681,551,1845,-0.181,-0.046,0.998,-5.06,-5.71,-3.68,R
,976211,2681,496,1845,-0.182,-0.052,1.037,-6.26,-6.42,-2.29,R
,976221,2684,496,1843,-0.178,-0.051,1.017,-3.93,-3.79,-1.62,R
,976231,2690,493,1850,-0.203,-0.016,1.012,-2.42,0.32,-0.96,R
,976241,2691,503,1846,-0.192,-0.023,1.009,-1.47,2.59,-1.76,R
,976251,2699,499,1843,-0.223,-0.015,0.990,-4.55,0.12,-3.12,R
,976261,2694,560,1847,-0.221,-0.029,0.989,-3.81,-1.15,-2.95,R
,976271,2698,581,1843,-0.218,-0.017,0.982,-3.93,-3.24,-2.54,R
,976281,2707,570,1841,-0.214,-0.022,0.982,-4.87,-3.44,-2.83,R
,976291,2715,511,1843,-0.222,-0.030,0.997,-8.02,-5.03,-2.61,R
,976301,2708,496,1845,-0.201,-0.030,1.031,-5.21,-3.41,-1.50,R
,976311,2704,555,1846,-0.184,-0.037,1.057,-5.79,-3.55,-2.38,R
,976321,2704,447,1847,-0.186,-0.046,1.034,-3.77,-3.18,-3.06,R
,976331,2713,510,1846,-0.198,-0.021,1.013,-3.74,-2.29,-0.89,R
,976341,2718,502,1846,-0.186,-0.038,1.020,-1.36,-0.49,-0.81,R
,976351,2713,509,1845,-0.183,-0.043,1.001,-2.60,-1.99,-2.51,R
,976361,2704,499,1850,-0.186,-0.048,0.995,-0.77,-3.90,-4.20,R
,976371,2721,500,1853,-0.175,-0.054,1.002,0.58,-6.03,-6.00,R
,976381,2709,509,1846,-0.193,-0.022,0.996,1.19,-3.94,-5.97,R
,976391,2685,592,1846,-0.209,-0.010,0.997,2.47,-1.26,-4.09,R
,976401,2681,566,1845,-0.191,-0.031,0.991,3.42,0.88,-3.96,R
,976411,2678,592,1850,-0.200,-0.024,0.995,1.02,1.52,-4.75,R
,976421,2673,571,1849,-0.205,-0.031,1.004,1.08,0.42,-5.30,R
,976431,2655,528,1843,-0.221,-0.013,1.019,1.48,-0.23,-4.69,R
,976441,2643,511,1841,-0.225,0.001,0.992,2.03,0.76,-2.63,R
,976451,2635,574,1843,-0.218,0.004,0.998,-2.31,-1.85,-3.12,R
,976461,2631,595,1848,-0.209,-0.011,0.995,-2.78,-4.42,-4.69,R
,976471,2639,638,1843,-0.191,-0.018,0.983,-3.01,-4.54,-4.46,R
,976481,2643,637,1844,-0.190,-0.010,0.992,-4.86,-2.46,-3.12,R
,976491,2653,651,1843,-0.176,-0.008,0.996,-4.63,0.06,-2.31,R
,976501,2653,657,1844,-0.183,-0.018,1.001,-5.10,2.45,-1.74,R
,976511,2643,662,1843,-0.184,-0.020,1.011,-4.22,3.52,-1.16,R
,976521,2651,669,1840,-0.187,-0.011,1.016,-4.25,4.48,0.72,R
,976531,2646,649,1840,-0.198,0.002,1.020,-4.61,5.02,0.73,R
,976541,2647,691,1843,-0.204,-0.008,1.001,-6.75,6.07,1.13,R
,976551,2643,688,1840,-0.198,-0.004,1.002,-7.44,5.57,-0.95,R
,976561,2647,668,1840,-0.212,-0.015,1.027,-7.61,5.93,-1.76,R
,976571,2640,671,1840,-0.216,-0.032,1.035,-7.38,4.61,-1.38,R
,976581,2639,675,1843,-0.200,-0.045,1.037,-3.55,3.77,-4.19,R
,976591,2642,645,1843,-0.211,-0.042,1.038,-3.93,3.45,-2.99,R
,976601,2647,686,1845,-0.197,-0.039,1.031,-2.95,3.00,-3.27,R
,976611,2652,676,1842,-0.202,-0.038,1.001,-2.57,2.82,-3.68,R
,976621,2662,679,1841,-0.204,-0.040,0.993,-4.51,1.78,-3.62,R
,976631,2643,651,1842,-0.183,-0.087,1.050,-0.64,0.36,-5.76,R
,976641,2679,649,1847,-0.224,-0.053,1.008,-1.47,6.67,-3.33,R
,976651,2669,650,1847,-0.237,-0.016,0.970,-0.46,7.26,-2.60,R
,976661,2672,647,1851,-0.249,-0.002,0.998,-5.52,2.64,-4.05,R
,976671,2679,649,1841,-0.254,-0.009,1.021,-3.77,-1.00,-5.91,R
,976681,2690,654,1847,-0.242,0.005,1.017,-5.50,-5.13,-6.74,R
,976691,2698,651,1844,-0.242,0.010,1.027,-5.73,-6.17,-6.17,R
,976701,2679,653,1846,-0.208,-0.011,1.014,-6.74,-6.91,-5.96,R
,976711,2685,656,1841,-0.206,-0.008,0.992,-8.45,-5.38,-4.64,R
,976721,2683,653,1840,-0.198,-0.021,0.991,-7.55,-2.14,-3.70,R
,976731,2690,640,1843,-0.203,-0.032,0.984,-8.26,-0.57,-4.08,R
,976741,2688,640,1845,-0.223,-0.031,0.998,-5.96,0.99,-3.64,R
,976751,2691,637,1843,-0.221,0.002,1.011,-4.28,2.33,-2.37,R
,976761,2698,640,1841,-0.224,0.008,1.026,-5.48,2.06,-1.85,R
,976771,2704,640,1839,-0.216,0.008,1.039,-3.87,0.59,-2.80,R
,976781,2703,641,1840,-0.218,0.001,1.030,-6.03,0.58,-3.74,R
,976791,2699,639,1840,-0.216,-0.017,1.021,-2.58,0.56,-5.79,R
,976801,2704,599,1840,-0.221,-0.016,1.006,-2.45,1.86,-4.23,R
,976811,2699,653,1840,-0.223,-0.033,0.990,-2.32,1.31,-3.76,R
,976821,2704,635,1840,-0.229,-0.022,0.959,-3.41,0.26,-4.11,R
,976831,2719,634,1840,-0.239,-0.024,0.951,-5.70,-1.33,-3.88,R
,976841,2719,643,1837,-0.241,-0.028,0.967,-5.97,-3.62,-5.59,R
,976851,2718,608,1844,-0.242,-0.004,0.993,-7.22,-4.52,-5.15,R
,976861,2722,655,1847,-0.229,0.002,1.019,-4.69,-3.93,-5.35,R
,976871,2723,642,1845,-0.220,0.009,1.031,-7.09,-6.13,-6.09,R
,976881,2730,624,1847,-0.215,0.018,1.032,-7.30,-5.90,-5.10,R
,976891,2735,592,1840,-0.209,0.001,1.043,-7.71,-5.01,-4.70,R
,976901,2729,640,1841,-0.203,-0.011,1.027,-7.06,-4.97,-5.13,R
,976911,2739,592,1842,-0.165,-0.022,1.007,-5.64,-2.34,-5.22,R
,976921,2721,592,1842,-0.181,-0.030,1.013,-4.17,-0.16,-6.03,R
,976931,2736,595,1840,-0.187,-0.030,1.010,-4.23,2.67,-5.25,R
,976941,2737,598,1842,-0.209,-0.025,0.999,-3.01,5.17,-3.54,R
,976951,2736,599,1840,-0.237,-0.002,1.005,-2.34,5.77,-1.64,R
,976961,2741,597,1840,-0.225,-0.006,1.010,-1.93,4.19,-2.83,R
,976971,2741,597,1840,-0.270,0.009,1.017,-4.54,1.48,-2.58,R
,976981,2749,598,1840,-0.268,0.008,1.012,-4.74,-4.60,-2.92,R
,976991,2747,597,1841,-0.248,0.011,0.981,-5.77,-7.99,-4.03,R
,977001,2746,601,1844,-0.226,-0.009,0.993,-8.93,-10.26,-5.67,R
,977011,2739,613,1841,-0.202,-0.025,0.999,-6.52,-9.99,-7.73,R
,977021,2743,597,1844,-0.200,-0.021,1.005,-5.70,-5.78,-5.82,R
,977031,2736,602,1843,-0.201,-0.021,1.010,-3.06,-0.63,-3.83,R
,977041,2735,598,1853,-0.190,-0.033,0.998,-1.22,3.40,-2.75,R
,977051,2731,602,1847,-0.214,-0.016,0.979,-2.57,4.42,-1.56,R
,977061,2735,606,1847,-0.210,-0.030,0.990,-3.42,2.29,-1.85,R
,977071,2734,604,1846,-0.216,-0.030,0.990,-4.00,-0.72,-4.09,R
,977081,2736,593,1843,-0.224,-0.019,0.988,-3.03,-3.04,-5.41,R
,977091,2738,615,1846,-0.223,-0.023,1.023,-2.26,-5.09,-7.15,R
,977101,2743,597,1846,-0.218,-0.005,1.021,-0.37,-4.71,-7.35,R
,977111,2742,590,1843,-0.203,0.001,1.029,-0.54,-5.00,-7.45,R
,977121,2752,511,1843,-0.130,-0.034,1.034,-4.75,-3.47,-11.67,R
,977131,2761,511,1840,-0.284,-0.012,1.101,-7.45,-3.73,-6.58,R
,977141,2757,554,1841,-0.200,-0.011,1.039,5.68,-0.97,-5.32,R
,977151,2773,537,1840,-0.209,0.004,0.995,-0.72,0.84,-2.54,R
,977161,2778,538,1840,-0.234,0.028,1.006,-1.50,0.80,-3.10,R
,977171,2763,531,1840,-0.250,0.014,0.961,-3.04,-0.19,-5.30,R
,977181,2739,538,1840,-0.256,0.016,0.960,-5.03,-3.99,-5.04,R
,977191,2781,546,1836,-0.238,0.015,0.973,-6.97,-7.30,-4.83,R
,977201,2791,511,1840,-0.203,-0.001,0.987,-8.77,-7.96,-6.48,R
,977211,2791,524,1839,-0.183,-0.012,1.003,-7.39,-5.15,-7.24,R
,977221,2800,528,1838,-0.183,-0.014,1.020,-6.87,-1.82,-5.99,R
,977231,2813,542,1840,-0.193,0.003,1.017,-4.26,0.68,-3.21,R
,977241,2782,526,1840,-0.198,0.008,1.034,-3.91,2.51,-1.91,R
,977251,2802,525,1843,-0.225,0.020,1.013,-4.00,1.17,-1.93,R
,977261,2802,525,1843,-0.239,0.020,0.998,-6.83,-2.86,-2.03,R
,977271,2803,535,1840,-0.227,0.015,0.976,-6.63,-3.42,-2.51,R
,977281,2800,525,1840,-0.227,0.024,0.983,-8.11,-3.10,-3.58,R
,977291,2800,528,1846,-0.228,0.012,1.000,-7.52,-3.59,-3.82,R
,977301,2800,528,1843,-0.217,0.006,1.003,-8.71,-3.65,-4.43,R
,977311,2802,528,1841,-0.223,0.008,1.007,-7.50,-3.20,-4.28,R
,977321,2803,530,1841,-0.210,0.000,1.011,-6.87,-1.96,-5.04,R
,977331,2785,529,1840,-0.207,-0.014,0.992,-5.91,-0.94,-5.79,R
,977341,2802,538,1840,-0.212,-0.011,0.994,-7.77,-0.55,-4.67,R
,977351,2801,525,1840,-0.213,-0.011,0.991,-6.29,1.08,-3.50,R
,977361,2802,533,1843,-0.222,-0.014,0.989,-6.97,0.29,-3.27,R
