wallclock_iso,t_ms,fsr1,fsr2,emg,ax,ay,az,gx,gy,gz,mode
,1754301,59,0,1845,0.148,-0.414,0.809,-12.46,1.02,-5.22,R
,1754311,54,0,1841,0.168,-0.427,0.897,-13.48,8.85,-4.74,R
,1754321,79,0,1844,0.158,-0.445,0.892,-19.73,6.85,-5.99,R
,1754331,71,0,1844,0.138,-0.456,0.895,-29.18,2.93,-8.78,R
,1754341,67,0,1846,0.128,-0.491,0.915,-35.82,-3.68,-12.12,R
,1754351,70,0,1851,0.134,-0.509,0.927,-38.51,-12.00,-15.51,R
,1754361,70,0,1849,0.133,-0.527,0.941,-36.42,-18.61,-19.64,R
,1754371,75,0,1846,0.140,-0.540,0.959,-30.57,-23.35,-25.13,R
,1754381,70,0,1849,0.169,-0.570,1.017,-20.37,-28.89,-31.58,R
,1754391,49,0,1846,0.182,-0.556,1.002,-9.99,-31.24,-37.12,R
,1754401,49,0,1853,0.168,-0.543,0.992,-1.24,-26.69,-39.10,R
,1754411,48,0,1841,0.172,-0.529,1.005,6.64,-19.10,-39.19,R
,1754421,7,0,1844,0.173,-0.517,0.998,13.17,-11.35,-39.13,R
,1754431,53,0,1847,0.170,-0.505,0.981,17.16,-6.57,-39.91,R
,1754441,60,0,1843,0.150,-0.475,0.958,17.10,-1.53,-39.87,R
,1754451,53,0,1840,0.131,-0.467,0.945,14.29,0.59,-39.03,R
,1754461,51,0,1839,0.146,-0.457,0.968,12.06,-2.55,-41.33,R
,1754471,51,0,1840,0.152,-0.440,0.944,8.96,-6.83,-43.54,R
,1754481,53,0,1840,0.152,-0.441,0.927,2.88,-9.68,-44.35,R
,1754491,48,0,1842,0.148,-0.425,0.901,-1.65,-10.28,-42.41,R
,1754501,58,0,1840,0.150,-0.433,0.926,-4.08,-11.26,-39.82,R
,1754511,61,0,1840,0.168,-0.433,0.939,-5.82,-14.43,-37.54,R
,1754521,52,0,1843,0.177,-0.434,0.931,-7.33,-15.49,-35.88,R
,1754531,59,0,1847,0.191,-0.449,0.952,-6.95,-17.50,-34.51,R
,1754541,58,0,1845,0.208,-0.444,0.937,-3.55,-18.23,-34.03,R
,1754551,55,0,1847,0.215,-0.446,0.932,-1.44,-18.36,-33.41,R
,1754561,63,0,1845,0.237,-0.426,0.929,0.85,-16.60,-32.69,R
,1754571,58,0,1842,0.247,-0.424,0.935,2.70,-14.61,-31.38,R
,1754581,64,0,1841,0.268,-0.408,0.938,5.55,-13.33,-29.77,R
,1754591,61,0,1842,0.281,-0.395,0.914,7.05,-10.66,-29.36,R
,1754601,63,0,1845,0.267,-0.387,0.931,3.19,-12.77,-28.02,R
,1754611,60,0,1841,0.271,-0.355,0.980,9.26,-15.18,-29.79,R
,1754621,63,0,1844,0.274,-0.345,0.953,8.74,-18.65,-28.69,R
,1754631,63,0,1841,0.286,-0.319,0.946,6.65,-19.87,-28.54,R
,1754641,60,0,1844,0.296,-0.307,0.944,4.45,-17.32,-29.39,R
,1754651,62,0,1845,0.299,-0.314,0.975,4.79,-12.17,-29.87,R
,1754661,63,0,1840,0.570,-0.342,0.778,-7.65,-1.47,-43.53,R
,1754671,61,0,1839,0.325,-0.262,0.981,8.99,-7.82,-31.01,R
,1754681,59,0,1838,0.300,-0.290,0.975,7.45,-11.49,-23.97,R
,1754691,64,0,1841,0.306,-0.275,0.989,6.94,-11.61,-25.35,R
,1754701,66,0,1845,0.278,-0.261,0.966,10.48,-8.31,-25.61,R
,1754711,63,0,1846,0.282,-0.270,0.978,14.50,-6.97,-25.25,R
,1754721,57,0,1846,0.263,-0.263,0.958,18.65,-7.88,-24.22,R
,1754731,61,0,1847,0.279,-0.269,0.966,23.58,-10.86,-23.96,R
,1754741,58,0,1846,0.288,-0.252,0.962,28.45,-14.60,-24.93,R
,1754751,62,0,1847,0.277,-0.230,0.943,27.78,-16.17,-25.71,R
,1754761,58,0,1843,0.258,-0.214,0.927,26.64,-14.52,-24.75,R
,1754771,64,0,1846,0.255,-0.221,0.927,24.23,-13.21,-21.97,R
,1754781,63,0,1845,0.251,-0.221,0.936,22.06,-12.34,-19.70,R
,1754791,62,0,1847,0.247,-0.235,0.929,19.22,-12.63,-19.13,R
,1754801,62,0,1845,0.242,-0.259,0.942,17.20,-14.34,-20.29,R
,1754811,64,0,1842,0.236,-0.288,0.946,19.86,-16.71,-21.71,R
,1754821,64,0,1840,0.240,-0.293,0.951,25.03,-17.67,-22.29,R
,1754831,57,0,1842,0.244,-0.295,0.930,28.07,-15.32,-23.19,R
,1754841,61,0,1846,0.231,-0.287,0.920,32.59,-11.61,-21.38,R
,1754851,64,0,1842,0.243,-0.263,0.930,37.75,-6.57,-17.80,R
,1754861,61,0,1840,0.267,-0.253,0.935,38.52,-0.29,-14.35,R
,1754871,57,0,1841,0.273,-0.243,0.918,34.85,5.89,-11.93,R
,1754881,64,0,1840,0.235,-0.261,0.929,31.77,9.35,-10.54,R
,1754891,53,0,1844,0.289,-0.277,0.946,27.16,9.63,-11.32,R
,1754901,64,0,1841,0.307,-0.293,0.943,26.56,8.33,-13.06,R
,1754911,62,0,1841,0.326,-0.295,0.957,26.79,8.91,-16.17,R
,1754921,63,0,1843,0.355,-0.299,0.968,27.87,9.00,-18.58,R
,1754931,59,0,1841,0.337,-0.331,1.026,34.21,11.05,-20.67,R
,1754941,63,0,1842,0.397,-0.296,0.963,32.85,5.78,-24.89,R
,1754951,63,0,1840,0.420,-0.255,0.973,30.99,1.51,-29.39,R
,1754961,59,0,1845,0.326,-0.241,1.052,36.67,1.97,-27.41,R
,1754971,63,0,1844,0.423,-0.248,0.945,47.13,13.51,-26.41,R
,1754981,62,0,1842,0.512,-0.211,1.018,51.29,36.65,-25.06,R
,1754991,63,0,1841,0.344,-0.182,1.062,52.61,21.95,-21.53,R
,1755001,58,0,1840,0.358,-0.177,1.087,69.46,23.61,-25.82,R
,1755011,62,0,1842,0.307,-0.095,1.047,82.85,18.30,-24.66,R
,1755021,64,0,1843,0.293,-0.055,1.021,88.01,17.49,-20.77,R
,1755031,64,0,1845,0.297,-0.021,1.035,92.56,14.59,-16.02,R
,1755041,62,0,1847,0.356,0.030,1.003,93.58,19.20,-14.38,R
,1755051,64,0,1840,0.344,0.093,0.963,93.10,25.95,-14.75,R
,1755061,63,0,1842,0.334,0.104,0.956,90.61,24.03,-13.94,R
,1755071,59,0,1840,0.312,0.126,0.936,88.99,19.37,-14.20,R
,1755081,59,0,1842,0.303,0.143,0.935,86.38,14.80,-13.76,R
,1755091,58,0,1842,0.347,0.155,0.947,85.72,8.33,-9.65,R
,1755101,60,0,1842,0.333,0.171,0.907,86.50,6.71,-10.14,R
,1755111,54,0,1845,0.351,0.167,0.900,84.85,6.13,-8.49,R
,1755121,53,0,1845,0.332,0.201,0.833,81.97,5.66,-5.80,R
,1755131,62,0,1840,0.323,0.210,0.832,75.97,4.64,-2.43,R
,1755141,58,0,1840,0.331,0.214,0.809,68.56,0.99,-0.70,R
,1755151,51,0,1843,0.343,0.222,0.783,58.13,-3.70,0.96,R
,1755161,49,0,1847,0.341,0.251,0.762,44.03,-5.97,2.97,R
,1755171,51,0,1840,0.314,0.261,0.760,28.13,-6.02,5.49,R
,1755181,52,0,1842,0.309,0.234,0.763,15.89,-8.05,9.43,R
,1755191,54,0,1845,0.306,0.213,0.785,4.42,-15.10,10.72,R
,1755201,49,0,1841,0.171,0.201,0.699,-8.43,-18.00,14.62,R
,1755211,53,0,1844,0.218,0.224,0.634,-14.90,-17.15,22.46,R
,1755221,50,0,1842,0.270,0.245,0.758,-23.00,-13.29,29.89,R
,1755231,49,0,1840,0.356,0.241,0.794,-21.07,-16.57,28.07,R
,1755241,53,0,1843,0.417,0.212,0.816,-25.35,-24.36,19.48,R
,1755251,49,0,1845,0.404,0.134,0.774,-9.68,-30.25,20.47,R
,1755261,58,0,1847,0.487,0.174,0.792,-17.62,-26.28,9.39,R
,1755271,55,0,1846,0.458,0.162,0.779,-34.52,-31.62,-5.03,R
,1755281,54,0,1847,0.313,0.114,0.856,-30.84,-26.89,-9.82,R
,1755291,57,0,1843,0.266,0.118,0.897,-19.93,-17.50,-2.63,R
,1755301,55,0,1847,0.275,0.097,0.938,-16.55,-12.43,-0.11,R
,1755311,51,0,1841,0.248,0.074,0.985,-18.26,-4.87,-1.77,R
,1755321,55,0,1840,0.249,0.046,1.030,-21.68,-2.32,-3.62,R
,1755331,50,0,1846,0.178,-0.033,1.105,-19.61,1.98,-0.96,R
,1755341,50,0,1851,0.279,-0.067,1.174,-28.77,5.92,0.82,R
,1755351,49,0,1841,0.224,-0.069,1.097,-19.79,-0.36,3.01,R
,1755361,50,0,1846,0.257,-0.094,1.050,-13.26,8.70,7.07,R
,1755371,53,0,1851,0.297,-0.124,1.061,-10.83,13.97,8.17,R
,1755381,51,0,1847,0.330,-0.149,1.053,-7.56,17.20,6.87,R
,1755391,51,0,1849,0.337,-0.159,1.016,0.01,22.38,2.35,R
,1755401,53,0,1843,0.339,-0.163,0.971,8.70,25.81,-1.68,R
,1755411,59,0,1849,0.354,-0.138,0.971,20.88,26.26,-7.44,R
,1755421,57,0,1850,0.375,-0.118,0.960,32.78,24.91,-16.51,R
,1755431,55,0,1843,0.361,-0.081,0.926,44.64,21.78,-24.77,R
,1755441,49,0,1845,0.334,-0.025,0.907,56.62,20.96,-28.05,R
,1755451,50,0,1840,0.319,0.045,0.873,64.97,26.74,-30.09,R
,1755461,51,0,1843,0.309,0.114,0.871,63.60,31.19,-30.02,R
,1755471,52,0,1841,0.297,0.139,0.859,59.84,36.32,-28.55,R
,1755481,59,0,1846,0.294,0.182,0.835,53.55,38.71,-26.89,R
,1755491,69,0,1847,0.300,0.212,0.833,43.81,38.04,-25.73,R
,1755501,58,0,1846,0.309,0.228,0.842,36.33,36.87,-26.99,R
,1755511,50,0,1845,0.287,0.266,0.854,32.62,35.35,-28.51,R
,1755521,55,0,1841,0.276,0.274,0.865,31.77,34.07,-30.43,R
,1755531,53,0,1840,0.269,0.282,0.879,31.20,30.33,-32.12,R
,1755541,73,0,1841,0.254,0.315,0.906,34.96,29.55,-32.19,R
,1755551,74,0,1840,0.239,0.333,0.892,36.59,30.24,-29.18,R
,1755561,77,0,1841,0.217,0.369,0.913,34.27,32.48,-24.80,R
,1755571,80,0,1840,0.219,0.383,0.920,34.67,34.44,-20.60,R
,1755581,81,0,1840,0.186,0.394,0.923,34.29,34.79,-16.26,R
,1755591,71,0,1841,0.165,0.398,0.936,31.77,36.16,-10.29,R
,1755601,75,0,1843,0.140,0.409,0.937,30.81,40.04,-2.40,R
,1755611,80,0,1846,0.137,0.399,0.925,29.11,43.02,5.95,R
,1755621,74,0,1846,0.153,0.389,0.945,28.96,44.45,13.02,R
,1755631,49,0,1842,0.165,0.414,0.956,30.42,44.36,18.24,R
,1755641,60,0,1850,0.153,0.413,0.963,30.03,43.74,22.21,R
,1755651,58,0,1849,0.122,0.420,0.970,28.32,42.67,26.39,R
,1755661,55,0,1853,0.120,0.406,0.983,23.68,40.01,31.34,R
,1755671,57,0,1846,0.118,0.399,1.015,17.48,35.08,35.14,R
,1755681,55,0,1849,0.107,0.372,1.020,14.12,29.92,37.88,R
,1755691,87,0,1845,0.112,0.375,1.028,10.61,22.70,40.39,R
,1755701,90,0,1843,0.101,0.365,1.026,7.66,15.64,41.66,R
,1755711,83,0,1840,0.086,0.358,1.041,4.24,11.13,43.17,R
,1755721,80,0,1846,0.090,0.343,1.059,6.78,7.63,48.94,R
,1755731,83,0,1843,0.077,0.339,1.054,8.19,9.92,55.25,R
,1755741,86,0,1842,0.088,0.319,1.077,1.71,9.86,57.46,R
,1755751,87,0,1841,0.077,0.276,1.076,-0.23,9.29,60.21,R
,1755761,89,0,1844,0.085,0.240,1.097,-2.40,10.50,58.30,R
,1755771,85,0,1850,0.086,0.205,1.109,5.65,14.62,58.23,R
,1755781,85,0,1847,0.088,0.183,1.098,15.98,16.48,58.13,R
,1755791,87,0,1849,0.067,0.183,1.096,25.10,15.08,56.90,R
,1755801,82,0,1857,0.052,0.197,1.081,29.14,12.03,53.02,R
,1755811,86,0,1853,0.055,0.211,1.054,28.32,7.97,47.54,R
,1755821,90,0,1846,0.032,0.219,1.042,27.86,8.13,45.69,R
,1755831,85,0,1846,0.009,0.222,1.021,26.04,8.65,44.70,R
,1755841,87,0,1844,-0.008,0.216,1.000,19.28,7.49,43.49,R
,1755851,88,0,1844,-0.031,0.214,0.992,11.95,8.42,41.07,R
,1755861,89,0,1847,-0.020,0.198,0.998,6.01,5.89,38.12,R
,1755871,87,0,1846,-0.023,0.177,0.990,4.18,8.16,35.01,R
,1755881,84,0,1851,-0.021,0.149,0.975,3.13,6.07,33.14,R
,1755891,94,0,1843,-0.039,0.163,0.978,4.15,6.90,30.70,R
,1755901,86,0,1840,-0.056,0.184,0.971,8.97,11.98,30.24,R
,1755911,89,0,1842,-0.033,0.190,0.972,13.97,19.08,30.87,R
,1755921,84,0,1845,-0.030,0.215,0.992,15.90,25.78,31.57,R
,1755931,91,0,1842,-0.037,0.217,1.005,15.43,32.03,31.46,R
,1755941,89,0,1842,-0.059,0.237,0.999,12.45,36.18,31.71,R
,1755951,90,0,1844,-0.079,0.255,1.023,5.95,36.21,29.77,R
,1755961,87,0,1841,-0.099,0.258,1.046,-4.11,33.29,26.38,R
,1755971,91,0,1841,-0.120,0.243,1.074,-14.54,25.23,21.83,R
,1755981,89,0,1845,-0.142,0.239,1.069,-23.44,18.47,18.38,R
,1755991,92,0,1846,-0.147,0.211,1.098,-27.99,12.96,15.83,R
,1756001,97,0,1844,-0.134,0.200,1.106,-26.58,8.21,12.44,R
,1756011,93,0,1842,-0.105,0.188,1.109,-21.55,5.58,8.73,R
,1756021,93,0,1841,-0.079,0.186,1.107,-13.82,6.51,5.36,R
,1756031,87,0,1843,-0.060,0.181,1.084,-5.39,9.20,2.55,R
,1756041,92,0,1842,-0.065,0.209,1.070,1.90,12.19,1.49,R
,1756051,95,0,1844,-0.068,0.226,1.053,8.10,15.54,1.17,R
,1756061,97,0,1844,-0.058,0.237,1.036,8.64,17.19,0.76,R
,1756071,93,0,1843,-0.049,0.241,1.033,5.80,15.22,0.07,R
,1756081,98,0,1845,-0.053,0.250,1.020,1.00,12.09,-1.16,R
,1756091,99,0,1845,-0.057,0.250,1.019,-8.43,6.80,-2.86,R
,1756101,91,0,1842,-0.052,0.236,1.027,-17.22,1.69,-4.57,R
,1756111,95,0,1846,-0.033,0.204,1.036,-19.91,-2.68,-6.93,R
,1756121,91,0,1851,-0.018,0.183,1.036,-18.19,-6.74,-9.65,R
,1756131,90,0,1842,-0.010,0.169,1.024,-16.45,-8.11,-13.19,R
,1756141,94,0,1841,0.023,0.151,1.010,-12.68,-7.36,-17.61,R
,1756151,93,0,1844,0.043,0.153,1.004,-3.50,-4.46,-22.75,R
,1756161,91,0,1846,0.057,0.168,0.987,7.80,-0.00,-26.80,R
,1756171,109,0,1845,0.052,0.192,0.955,16.64,5.17,-29.41,R
,1756181,107,0,1842,0.048,0.235,0.918,23.39,10.87,-30.31,R
,1756191,97,0,1840,0.041,0.268,0.888,24.27,15.58,-30.66,R
,1756201,91,0,1840,0.042,0.297,0.877,21.36,17.31,-31.42,R
,1756211,94,0,1843,0.045,0.313,0.865,14.99,16.77,-32.00,R
,1756221,92,0,1845,0.050,0.330,0.851,7.54,14.67,-31.30,R
,1756231,97,0,1843,0.048,0.346,0.862,0.56,12.99,-30.35,R
,1756241,93,0,1846,0.049,0.366,0.876,-7.94,11.42,-29.50,R
,1756251,91,0,1840,0.062,0.363,0.897,-15.38,9.78,-28.95,R
,1756261,94,0,1840,0.070,0.371,0.925,-21.41,8.48,-29.10,R
,1756271,91,0,1840,0.063,0.360,0.940,-24.45,8.42,-28.66,R
,1756281,80,0,1842,0.058,0.363,0.985,-24.42,10.06,-27.35,R
,1756291,89,0,1844,0.052,0.365,1.008,-23.22,12.04,-25.68,R
,1756301,109,0,1841,0.049,0.358,1.025,-21.64,12.97,-25.01,R
,1756311,101,0,1840,0.037,0.357,1.041,-19.84,12.71,-24.64,R
,1756321,106,0,1843,0.030,0.349,1.046,-17.73,11.60,-24.25,R
,1756331,106,0,1841,0.022,0.349,1.041,-14.72,10.97,-24.12,R
,1756341,87,0,1843,0.017,0.347,1.045,-12.83,9.54,-23.99,R
,1756351,105,0,1842,0.014,0.356,1.047,-12.39,8.03,-24.06,R
,1756361,108,0,1847,0.013,0.352,1.047,-10.66,7.51,-24.87,R
,1756371,99,0,1845,0.017,0.345,1.061,-11.62,5.84,-25.24,R
,1756381,96,0,1847,0.013,0.349,1.075,-11.18,5.64,-24.52,R
,1756391,105,0,1847,0.011,0.350,1.079,-10.55,4.79,-24.26,R
,1756401,93,0,1845,-0.010,0.340,1.087,-11.27,4.51,-23.99,R
,1756411,106,0,1849,-0.014,0.314,1.097,-13.00,2.76,-23.88,R
,1756421,101,0,1844,-0.039,0.299,1.123,-9.47,1.22,-24.92,R
,1756431,94,0,1840,-0.037,0.299,1.140,-4.83,-1.49,-26.19,R
,1756441,90,0,1840,-0.021,0.275,1.169,2.19,-2.46,-26.87,R
,1756451,101,0,1841,0.008,0.263,1.155,11.52,-3.78,-28.43,R
,1756461,105,0,1840,0.031,0.249,1.155,17.74,-5.41,-29.01,R
,1756471,111,0,1846,0.038,0.234,1.130,26.03,-5.24,-30.20,R
,1756481,107,0,1839,0.059,0.230,1.097,34.26,-2.68,-30.19,R
,1756491,103,0,1839,0.084,0.217,1.035,42.30,0.91,-29.68,R
,1756501,119,0,1837,0.134,0.195,0.978,49.05,4.06,-30.20,R
,1756511,124,0,1839,0.148,0.186,0.914,53.66,7.75,-32.12,R
,1756521,124,0,1840,0.158,0.201,0.843,55.16,10.38,-32.55,R
,1756531,121,0,1841,0.175,0.219,0.785,50.96,9.93,-32.41,R
,1756541,116,0,1840,0.196,0.221,0.734,40.58,7.66,-34.80,R
,1756551,112,0,1840,0.211,0.239,0.699,25.52,2.79,-39.09,R
,1756561,121,0,1839,0.208,0.288,0.717,9.37,1.60,-43.82,R
,1756571,123,0,1842,0.147,0.359,0.800,-4.17,5.49,-46.83,R
,1756581,116,0,1840,0.054,0.445,0.938,-16.83,8.90,-48.38,R
,1756591,126,0,1847,-0.075,0.515,1.136,-28.10,12.88,-47.93,R
,1756601,129,0,1841,-0.183,0.569,1.314,-36.10,10.03,-46.23,R
,1756611,128,0,1842,-0.381,0.567,1.595,-34.83,3.78,-45.39,R
,1756621,124,0,1844,-0.311,0.583,1.650,-20.77,-6.65,-46.25,R
,1756631,128,0,1845,-0.457,0.382,1.702,8.45,-24.10,-30.98,R
,1756641,128,0,1842,-0.430,0.310,1.577,55.32,-31.38,-25.28,R
,1756651,128,0,1840,-0.475,0.360,1.538,116.24,-30.16,-23.03,R
,1756661,123,0,1836,-0.336,0.392,1.321,154.12,-41.39,-19.77,R
,1756671,126,0,1838,-0.218,0.415,1.093,171.87,-50.65,-21.18,R
,1756681,128,0,1835,-0.144,0.422,0.893,171.52,-59.27,-25.59,R
,1756691,128,0,1839,-0.090,0.449,0.712,164.32,-65.24,-29.59,R
,1756701,123,0,1840,-0.065,0.424,0.572,154.10,-65.49,-32.70,R
,1756711,122,0,1841,-0.012,0.386,0.474,136.91,-63.44,-37.36,R
,1756721,125,0,1841,0.027,0.361,0.390,114.44,-57.00,-41.53,R
,1756731,125,0,1843,0.056,0.344,0.332,90.59,-48.54,-42.06,R
,1756741,127,0,1840,0.085,0.329,0.317,64.65,-34.98,-40.55,R
,1756751,131,0,1843,0.133,0.314,0.287,38.32,-24.74,-36.84,R
,1756761,120,0,1841,0.150,0.283,0.299,5.92,-16.80,-35.19,R
,1756771,123,0,1846,0.169,0.277,0.345,-21.81,-9.35,-36.57,R
,1756781,126,0,1846,0.192,0.267,0.415,-40.66,2.82,-41.25,R
,1756791,124,0,1847,0.156,0.268,0.502,-41.68,20.27,-44.60,R
,1756801,126,0,1845,0.165,0.274,0.570,-47.56,34.50,-51.24,R
,1756811,128,0,1851,0.087,0.277,0.664,-48.03,46.07,-58.81,R
,1756821,128,0,1849,-0.022,0.348,0.761,-39.33,54.61,-65.39,R
,1756831,125,0,1853,-0.142,0.445,0.842,-21.06,64.73,-66.11,R
,1756841,126,0,1851,-0.229,0.520,0.874,-6.97,67.13,-64.70,R
,1756851,126,0,1847,-0.311,0.572,0.925,-0.77,63.68,-60.48,R
,1756861,126,0,1843,-0.353,0.631,0.918,-5.12,48.96,-58.75,R
,1756871,128,0,1849,-0.483,0.488,0.970,10.16,44.22,-41.54,R
,1756881,128,0,1845,-0.338,0.646,0.883,-7.87,34.16,-46.03,R
,1756891,127,0,1844,-0.265,0.664,0.840,-3.44,26.26,-40.90,R
,1756901,128,0,1842,-0.219,0.676,0.802,-4.16,21.68,-36.23,R
,1756911,125,0,1842,-0.172,0.672,0.751,-8.89,18.48,-32.06,R
,1756921,128,0,1843,-0.136,0.657,0.732,-10.22,19.20,-27.68,R
,1756931,126,0,1843,-0.115,0.659,0.719,-8.26,22.01,-22.89,R
,1756941,123,0,1841,-0.089,0.649,0.709,-5.58,25.37,-18.00,R
,1756951,128,0,1843,-0.076,0.645,0.692,-5.59,26.00,-14.03,R
,1756961,128,0,1844,-0.073,0.654,0.703,-7.27,26.21,-10.96,R
,1756971,123,0,1845,-0.071,0.673,0.731,-8.55,24.76,-8.37,R
,1756981,128,0,1843,-0.061,0.696,0.751,-8.66,22.56,-5.22,R
,1756991,119,0,1847,-0.054,0.709,0.775,-10.93,18.01,-3.16,R
,1757001,121,0,1844,-0.062,0.719,0.809,-13.96,12.74,-1.25,R
,1757011,119,0,1842,-0.084,0.753,0.850,-15.30,9.31,0.13,R
,1757021,125,0,1842,-0.106,0.766,0.885,-16.98,3.97,0.93,R
,1757031,119,0,1840,-0.135,0.768,0.894,-19.70,-3.52,2.21,R
,1757041,122,0,1840,-0.161,0.767,0.917,-22.22,-12.07,3.65,R
,1757051,122,0,1844,-0.152,0.759,0.928,-24.68,-20.28,4.46,R
,1757061,118,0,1853,-0.154,0.743,0.947,-28.37,-27.55,4.53,R
,1757071,122,0,1847,-0.151,0.718,0.951,-29.85,-33.38,4.44,R
,1757081,120,0,1846,-0.133,0.688,0.939,-28.52,-37.01,4.42,R
,1757091,124,0,1843,-0.126,0.671,0.933,-26.69,-39.01,4.52,R
,1757101,122,0,1843,-0.123,0.652,0.934,-21.97,-37.70,4.76,R
,1757111,117,0,1845,-0.119,0.628,0.924,-18.45,-37.23,4.32,R
,1757121,123,0,1847,-0.110,0.619,0.927,-14.39,-34.57,4.62,R
,1757131,125,0,1851,-0.103,0.606,0.924,-10.40,-30.29,4.68,R
,1757141,128,0,1847,-0.112,0.594,0.902,-6.78,-23.74,5.31,R
,1757151,129,0,1845,-0.121,0.582,0.901,-4.84,-18.63,5.55,R
,1757161,128,0,1846,-0.126,0.567,0.891,-4.35,-13.68,6.07,R
,1757171,128,0,1843,-0.130,0.562,0.897,-3.64,-8.78,6.93,R
,1757181,128,0,1842,-0.133,0.554,0.884,-3.88,-5.68,8.13,R
,1757191,128,0,1841,-0.130,0.540,0.876,-4.31,-2.65,9.36,R
,1757201,122,0,1851,-0.126,0.533,0.865,-4.90,-1.39,11.26,R
,1757211,115,0,1846,-0.125,0.535,0.871,-6.57,-0.17,12.12,R
,1757221,114,0,1847,-0.114,0.516,0.861,-8.77,0.67,12.70,R
,1757231,121,0,1847,-0.106,0.493,0.857,-11.35,0.82,12.81,R
,1757241,116,0,1843,-0.097,0.486,0.854,-11.06,2.19,13.83,R
,1757251,113,0,1842,-0.077,0.459,0.837,-11.35,2.64,14.10,R
,1757261,114,0,1840,-0.078,0.464,0.842,-12.71,3.97,13.91,R
,1757271,122,0,1846,-0.062,0.448,0.829,-13.03,4.48,13.37,R
,1757281,122,0,1842,-0.053,0.439,0.819,-11.94,4.22,11.88,R
,1757291,125,0,1842,-0.041,0.424,0.817,-10.74,3.83,10.94,R
,1757301,126,0,1840,0.000,0.406,0.818,-6.83,1.19,9.91,R
,1757311,122,0,1842,0.038,0.375,0.790,-0.45,-1.20,2.70,R
,1757321,116,0,1840,0.018,0.346,0.762,-2.17,-2.57,-7.93,R
,1757331,126,0,1840,0.007,0.370,0.771,-6.60,-6.26,-14.69,R
,1757341,125,0,1840,-0.025,0.374,0.802,-4.26,-5.62,-17.07,R
,1757351,125,0,1845,-0.042,0.403,0.832,3.02,-1.90,-14.98,R
,1757361,125,0,1842,-0.029,0.423,0.859,9.83,2.77,-13.27,R
,1757371,124,0,1845,-0.019,0.468,0.871,14.01,6.68,-13.30,R
,1757381,121,0,1842,-0.040,0.522,0.871,18.09,11.34,-12.48,R
,1757391,126,0,1841,-0.067,0.564,0.882,21.10,15.83,-10.70,R
,1757401,124,0,1841,-0.092,0.616,0.882,21.17,20.15,-7.87,R
,1757411,125,0,1842,-0.128,0.658,0.894,16.74,23.26,-4.28,R
,1757421,127,0,1842,-0.177,0.699,0.917,11.98,24.53,-1.67,R
,1757431,123,0,1844,-0.206,0.718,0.936,6.45,22.30,1.11,R
,1757441,119,0,1841,-0.223,0.720,0.968,1.10,17.02,1.04,R
,1757451,123,0,1842,-0.221,0.706,0.981,-2.02,10.85,0.03,R
,1757461,125,0,1845,-0.231,0.678,0.979,-2.31,5.40,-1.03,R
,1757471,121,0,1846,-0.223,0.650,0.982,1.46,2.21,-0.93,R
,1757481,121,0,1843,-0.200,0.616,0.953,6.96,0.90,-0.52,R
,1757491,125,0,1849,-0.179,0.601,0.940,12.55,0.21,-1.24,R
,1757501,125,0,1846,-0.165,0.601,0.923,16.96,0.04,-2.70,R
,1757511,122,0,1843,-0.162,0.604,0.905,22.70,0.80,-2.66,R
,1757521,122,0,1840,-0.149,0.595,0.874,27.74,2.30,-2.67,R
,1757531,119,0,1845,-0.142,0.594,0.848,30.67,3.92,-2.28,R
,1757541,121,0,1841,-0.136,0.589,0.812,32.68,5.39,-0.99,R
,1757551,124,0,1845,-0.139,0.594,0.790,32.32,6.21,0.13,R
,1757561,125,0,1849,-0.139,0.605,0.776,30.99,7.77,1.69,R
,1757571,122,0,1841,-0.135,0.605,0.754,28.32,7.35,2.76,R
,1757581,125,0,1840,-0.145,0.624,0.744,24.03,6.70,3.69,R
,1757591,123,0,1840,-0.143,0.618,0.734,17.66,4.85,3.36,R
,1757601,118,0,1840,-0.153,0.626,0.721,11.98,2.48,3.74,R
,1757611,121,0,1841,-0.151,0.630,0.727,7.02,1.26,5.40,R
,1757621,116,0,1843,-0.148,0.623,0.732,1.94,0.03,7.49,R
,1757631,111,0,1843,-0.135,0.621,0.729,-2.10,-1.23,9.62,R
,1757641,112,0,1842,-0.133,0.627,0.735,-4.83,-1.53,11.57,R
,1757651,118,0,1846,-0.136,0.627,0.744,-6.93,-0.92,13.46,R
,1757661,112,0,1843,-0.134,0.632,0.749,-8.02,-0.52,14.93,R
,1757671,112,0,1842,-0.134,0.633,0.748,-9.30,-0.49,15.88,R
,1757681,115,0,1842,-0.136,0.635,0.746,-10.17,-1.33,16.79,R
,1757691,113,0,1841,-0.134,0.629,0.755,-10.10,-1.18,17.39,R
,1757701,117,0,1840,-0.135,0.629,0.751,-10.69,-1.44,18.96,R
,1757711,118,0,1840,-0.132,0.638,0.764,-10.43,-1.16,20.00,R
,1757721,119,0,1842,-0.122,0.639,0.765,-10.69,-0.03,21.22,R
,1757731,118,0,1840,-0.126,0.655,0.780,-12.46,0.82,22.23,R
,1757741,125,0,1838,-0.135,0.665,0.789,-13.62,1.16,23.69,R
,1757751,123,0,1840,-0.140,0.672,0.805,-15.39,0.74,24.65,R
,1757761,126,0,1841,-0.142,0.681,0.817,-17.42,-0.80,24.99,R
,1757771,127,0,1841,-0.144,0.690,0.827,-19.00,-3.99,25.04,R
,1757781,122,0,1845,-0.142,0.679,0.843,-19.68,-6.86,24.55,R
,1757791,126,0,1849,-0.131,0.676,0.844,-21.53,-11.06,24.88,R
,1757801,119,0,1845,-0.139,0.663,0.840,-20.22,-12.54,22.91,R
,1757811,124,0,1847,-0.134,0.669,0.859,-21.47,-13.20,23.78,R
,1757821,120,0,1844,-0.121,0.642,0.880,-19.16,-11.74,27.17,R
,1757831,125,0,1842,-0.106,0.658,0.885,-17.22,-10.63,26.46,R
,1757841,122,0,1840,-0.085,0.665,0.872,-20.20,-11.85,27.88,R
,1757851,119,0,1843,-0.098,0.664,0.860,-20.51,-14.20,25.55,R
,1757861,122,0,1844,-0.085,0.668,0.859,-21.42,-16.08,26.26,R
,1757871,126,0,1843,-0.074,0.670,0.865,-24.16,-18.61,26.88,R
,1757881,122,0,1844,-0.060,0.659,0.881,-28.98,-21.30,30.30,R
,1757891,122,0,1845,-0.052,0.650,0.873,-30.92,-23.49,29.19,R
,1757901,128,0,1845,-0.030,0.638,0.866,-34.17,-24.69,30.06,R
,1757911,124,0,1851,-0.023,0.616,0.867,-36.51,-26.42,30.15,R
,1757921,119,0,1849,-0.011,0.611,0.862,-36.66,-27.70,29.31,R
,1757931,125,0,1852,0.003,0.612,0.859,-33.10,-29.91,27.26,R
,1757941,126,0,1851,0.026,0.621,0.879,-31.09,-35.59,22.88,R
,1757951,121,0,1851,0.047,0.651,0.890,-28.00,-37.84,17.63,R
,1757961,127,0,1851,0.056,0.612,0.901,-24.90,-42.34,16.23,R
,1757971,127,0,1854,0.066,0.593,0.902,-21.29,-46.51,16.82,R
,1757981,119,0,1852,0.132,0.581,0.863,-20.11,-47.85,17.31,R
,1757991,125,0,1855,0.105,0.582,0.840,-17.22,-47.38,18.84,R
,1758001,122,0,1847,0.119,0.579,0.805,-12.63,-46.83,18.20,R
,1758011,119,0,1846,0.131,0.572,0.794,-9.12,-49.67,15.75,R
,1758021,128,0,1849,0.155,0.575,0.771,-6.22,-54.10,9.65,R
,1758031,128,0,1849,0.143,0.694,0.580,-41.53,-91.38,2.49,R
,1758041,91,0,1855,0.170,0.581,0.710,4.71,-65.78,-3.87,R
,1758051,132,0,1851,0.202,0.600,0.758,7.34,-69.06,-5.76,R
,1758061,121,0,1845,0.197,0.621,0.768,11.65,-69.13,-7.09,R
,1758071,128,0,1847,0.178,0.631,0.759,16.55,-70.13,-2.55,R
,1758081,134,0,1851,0.192,0.559,0.736,26.56,-64.17,11.23,R
,1758091,127,0,1850,0.169,0.694,0.708,23.23,-65.07,18.76,R
,1758101,126,0,1845,0.152,0.711,0.721,16.39,-53.50,14.33,R
,1758111,128,0,1843,0.172,0.656,0.720,11.74,-50.55,11.89,R
,1758121,139,0,1846,0.181,0.722,0.658,-3.18,-56.20,2.93,R
,1758131,130,0,1849,0.217,0.646,0.668,-8.23,-64.89,-4.17,R
,1758141,138,0,1847,0.259,0.639,0.652,-10.55,-69.84,-14.96,R
,1758151,131,0,1843,0.213,0.644,0.637,-6.54,-72.14,-21.94,R
,1758161,135,0,1843,0.249,0.639,0.626,-1.59,-71.49,-26.19,R
,1758171,131,0,1850,0.278,0.628,0.559,2.70,-69.82,-28.96,R
,1758181,128,0,1852,0.297,0.597,0.537,7.13,-68.87,-28.87,R
,1758191,92,0,1853,0.249,0.652,0.548,-6.17,-61.99,-28.11,R
,1758201,131,0,1851,0.224,0.599,0.536,-10.03,-52.48,-21.18,R
,1758211,128,0,1844,0.350,0.585,0.384,-25.96,-47.97,-25.97,R
,1758221,124,0,1846,0.295,0.641,0.477,-40.68,-35.47,-16.60,R
,1758231,129,0,1850,0.240,0.660,0.587,-41.45,-27.15,-9.41,R
,1758241,130,0,1846,-0.051,0.650,0.775,-33.77,-19.56,-6.83,R
,1758251,130,0,1843,0.252,0.630,0.648,-39.29,-13.85,-0.72,R
,1758261,130,0,1850,0.270,0.637,0.701,-33.39,-6.78,5.39,R
,1758271,128,0,1846,0.254,0.635,0.746,-26.55,1.28,11.49,R
,1758281,123,0,1847,0.277,0.621,0.743,-21.36,11.83,15.26,R
,1758291,128,0,1846,0.175,0.636,0.802,-19.01,25.74,19.81,R
,1758301,126,0,1855,0.196,0.620,0.755,-20.20,36.77,24.49,R
,1758311,129,0,1850,0.240,0.571,0.749,-24.61,39.89,21.69,R
,1758321,127,0,1843,0.159,0.555,0.811,-26.95,34.84,22.42,R
,1758331,122,0,1846,0.172,0.507,0.798,-28.45,33.22,24.62,R
,1758341,123,0,1842,0.185,0.453,0.799,-23.13,24.16,26.03,R
,1758351,123,0,1847,0.224,0.430,0.791,-18.17,11.28,30.39,R
,1758361,134,0,1845,0.278,0.442,0.784,-11.71,6.22,34.58,R
,1758371,128,0,1851,0.325,0.453,0.777,-10.71,9.80,35.30,R
,1758381,135,0,1850,0.360,0.456,0.774,-13.52,15.17,30.76,R
,1758391,133,0,1854,0.357,0.479,0.788,-19.22,20.16,26.26,R
,1758401,95,0,1855,0.347,0.497,0.811,-30.08,25.86,23.86,R
,1758411,144,0,1854,0.355,0.452,0.812,-41.67,29.84,19.11,R
,1758421,144,0,1854,0.100,0.436,1.021,-47.87,31.43,17.48,R
,1758431,134,0,1851,0.311,0.423,0.802,-60.68,46.87,15.65,R
,1758441,132,0,1849,0.284,0.390,0.812,-64.51,47.78,15.10,R
,1758451,139,0,1847,0.244,0.387,0.860,-68.57,51.80,17.22,R
,1758461,135,0,1847,0.197,0.368,0.944,-66.23,56.55,15.72,R
,1758471,141,0,1847,0.199,0.394,0.941,-64.32,53.66,16.04,R
,1758481,142,0,1847,0.227,0.377,0.926,-55.58,54.09,11.62,R
,1758491,134,0,1846,0.247,0.405,0.897,-53.81,56.94,7.25,R
,1758501,134,0,1845,0.250,0.442,0.889,-53.79,60.62,2.49,R
,1758511,134,0,1843,0.283,0.448,0.890,-57.70,64.12,-3.53,R
,1758521,135,0,1840,0.332,0.405,0.979,-53.76,76.71,-11.68,R
,1758531,138,0,1840,0.196,0.401,0.863,-62.78,77.58,-9.93,R
,1758541,137,0,1841,0.122,0.385,0.919,-61.76,81.43,-4.29,R
,1758551,133,0,1841,0.115,0.366,0.930,-57.50,82.16,0.32,R
,1758561,132,0,1845,0.114,0.346,0.968,-54.57,79.60,2.72,R
,1758571,138,0,1842,0.135,0.298,0.975,-54.05,74.09,3.72,R
,1758581,136,0,1842,0.097,0.341,0.997,-56.32,72.59,6.42,R
,1758591,139,0,1840,0.065,0.397,1.001,-66.89,75.98,9.49,R
,1758601,133,0,1840,-0.013,0.376,1.011,-82.31,81.51,9.94,R
,1758611,131,0,1840,-0.100,0.329,0.826,-112.31,91.35,8.41,R
,1758621,130,0,1841,-0.079,0.281,0.938,-127.13,103.68,9.30,R
,1758631,131,0,1842,-0.112,0.182,1.002,-144.75,108.26,11.81,R
,1758641,129,0,1841,-0.167,0.101,1.036,-149.53,105.32,13.74,R
,1758651,129,0,1841,-0.141,0.004,1.037,-142.72,96.85,13.42,R
,1758661,139,0,1845,-0.114,-0.061,1.025,-125.73,75.09,10.81,R
,1758671,99,0,1843,-0.062,-0.123,1.041,-98.08,53.63,4.30,R
,1758681,147,0,1840,-0.009,-0.126,1.022,-65.76,33.25,-1.22,R
,1758691,140,0,1841,0.014,-0.112,0.999,-30.55,29.87,-8.23,R
,1758701,144,0,1847,-0.024,-0.059,0.936,-4.40,34.51,-11.32,R
,1758711,135,0,1842,-0.042,-0.020,0.870,12.19,44.71,-16.03,R
,1758721,170,0,1844,-0.057,0.018,0.791,21.94,55.93,-22.09,R
,1758731,103,0,1841,-0.116,0.053,0.745,25.42,64.88,-24.64,R
,1758741,143,0,1840,-0.186,0.057,0.730,29.37,69.89,-24.06,R
,1758751,141,0,1839,-0.228,0.071,0.722,32.23,72.73,-22.51,R
,1758761,129,0,1840,-0.309,0.121,0.729,33.51,75.43,-16.00,R
,1758771,138,0,1838,-0.393,0.134,0.765,35.92,77.14,-10.63,R
,1758781,137,0,1843,-0.437,0.167,0.775,39.80,83.48,-4.29,R
,1758791,139,0,1840,-0.504,0.240,0.788,41.00,95.22,7.42,R
,1758801,136,0,1841,-0.556,0.293,0.836,41.92,104.91,19.08,R
,1758811,142,0,1841,-0.560,0.321,0.863,38.87,109.13,26.12,R
,1758821,141,0,1851,-0.557,0.360,0.865,33.45,107.64,31.14,R
,1758831,139,0,1842,-0.546,0.356,0.858,29.43,104.56,34.49,R
,1758841,140,0,1842,-0.550,0.329,0.875,25.77,98.58,34.59,R
,1758851,139,0,1840,-0.457,0.330,0.897,31.19,90.65,34.20,R
,1758861,141,0,1846,-0.536,0.332,0.891,26.93,80.18,35.33,R
,1758871,140,0,1841,-0.477,0.372,0.901,26.19,72.96,29.01,R
,1758881,140,0,1850,-0.488,0.351,0.854,8.48,63.61,22.20,R
,1758891,142,0,1845,-0.498,0.400,0.860,-12.49,57.77,20.39,R
,1758901,140,0,1844,-0.513,0.436,0.873,-30.64,54.24,22.26,R
,1758911,143,0,1841,-0.513,0.428,0.916,-50.48,50.24,23.75,R
,1758921,143,0,1851,-0.501,0.430,0.938,-64.08,45.81,21.88,R
,1758931,144,0,1849,-0.459,0.394,0.929,-78.60,33.95,16.21,R
,1758941,143,0,1849,-0.417,0.346,0.901,-98.34,18.41,6.23,R
,1758951,146,0,1846,-0.409,0.317,0.925,-122.42,0.19,-1.85,R
,1758961,144,0,1850,-0.426,0.273,0.968,-138.48,-16.17,-4.52,R
,1758971,152,0,1842,-0.413,0.214,0.971,-149.38,-30.98,-1.64,R
,1758981,139,0,1842,-0.405,0.152,1.009,-154.14,-42.16,3.60,R
,1758991,142,0,1853,-0.385,0.122,1.043,-151.82,-49.29,8.68,R
,1759001,137,0,1850,-0.355,0.076,1.086,-140.40,-52.16,11.43,R
,1759011,139,0,1845,-0.316,0.049,1.099,-127.29,-50.65,14.10,R
,1759021,134,0,1846,-0.303,0.046,1.089,-113.27,-45.00,16.00,R
,1759031,144,0,1845,-0.243,-0.026,1.231,-99.88,-40.13,14.47,R
,1759041,140,0,1846,-0.303,0.056,1.150,-84.63,-29.26,19.11,R
,1759051,131,0,1843,-0.248,0.006,1.237,-69.91,-17.44,26.58,R
,1759061,139,0,1843,-0.352,0.008,1.206,-56.93,-8.54,35.52,R
,1759071,137,0,1840,-0.374,-0.029,1.191,-47.58,1.34,40.24,R
,1759081,142,0,1844,-0.386,-0.016,1.174,-42.68,7.87,44.07,R
,1759091,172,0,1840,-0.397,-0.016,1.197,-34.48,13.68,44.90,R
,1759101,138,0,1842,-0.373,-0.067,1.080,-17.22,5.19,41.92,R
,1759111,138,0,1845,-0.374,-0.094,1.205,-14.46,3.81,27.48,R
,1759121,142,0,1840,-0.345,-0.066,1.233,0.47,-5.24,12.73,R
,1759131,139,0,1842,-0.421,-0.021,1.163,14.87,-16.32,10.93,R
,1759141,139,0,1840,-0.491,0.041,1.092,10.29,-23.24,16.53,R
,1759151,139,0,1841,-0.468,0.062,1.035,4.41,-26.92,21.36,R
,1759161,80,0,1841,-0.440,0.042,1.031,-6.77,-29.84,22.72,R
,1759171,82,0,1843,-0.410,0.063,1.004,-21.61,-29.52,23.92,R
,1759181,126,0,1843,-0.350,-0.004,1.026,-23.38,-28.16,28.17,R
,1759191,128,0,1847,-0.300,-0.040,1.035,-24.42,-27.49,26.76,R
,1759201,134,0,1847,-0.298,-0.032,1.043,-32.95,-27.73,22.72,R
,1759211,144,0,1846,-0.296,-0.071,1.031,-41.15,-26.49,22.93,R
,1759221,149,0,1846,-0.296,-0.082,1.054,-39.27,-24.60,27.66,R
,1759231,140,0,1842,-0.258,-0.104,1.045,-33.00,-19.38,29.20,R
,1759241,129,0,1849,-0.238,-0.094,1.037,-24.29,-11.74,29.75,R
,1759251,124,0,1842,-0.210,-0.088,1.059,-14.64,-2.80,27.98,R
,1759261,119,0,1842,-0.219,-0.056,1.045,-8.37,7.39,26.33,R
,1759271,144,0,1841,-0.240,-0.032,1.040,-4.66,16.35,25.30,R
,1759281,137,0,1850,-0.228,0.051,0.974,-0.43,24.24,24.41,R
,1759291,142,0,1843,-0.280,0.030,1.014,3.11,25.68,25.66,R
,1759301,143,0,1845,-0.297,0.066,0.990,6.07,24.44,26.24,R
,1759311,144,0,1849,-0.302,0.095,0.972,7.90,21.71,27.94,R
,1759321,141,0,1846,-0.300,0.104,0.949,6.81,12.33,30.01,R
,1759331,144,0,1845,-0.240,0.121,0.929,10.26,4.38,27.95,R
,1759341,141,0,1847,-0.246,0.112,0.921,8.36,-4.74,23.95,R
,1759351,137,0,1847,-0.218,0.102,0.906,5.58,-11.09,19.54,R
,1759361,128,0,1843,-0.212,0.049,0.900,-5.47,-15.73,16.81,R
,1759371,132,0,1845,-0.180,0.079,0.896,-2.93,-16.08,17.39,R
,1759381,138,0,1843,-0.198,0.091,0.897,-6.98,-16.97,15.10,R
,1759391,127,0,1845,-0.174,0.077,0.881,-10.10,-20.14,12.35,R
,1759401,122,0,1846,-0.159,0.068,0.915,-11.67,-21.53,7.98,R
,1759411,127,0,1847,-0.199,0.079,0.934,-14.25,-23.84,5.52,R
,1759421,117,0,1850,-0.198,0.078,0.952,-15.88,-23.00,6.24,R
,1759431,121,0,1846,-0.184,0.064,0.975,-13.52,-20.10,5.89,R
,1759441,126,0,1845,-0.166,0.065,0.959,-14.03,-17.56,4.33,R
,1759451,117,0,1845,-0.178,0.060,1.011,-17.27,-16.65,0.27,R
,1759461,118,0,1845,-0.190,0.054,1.012,-19.55,-18.02,-3.35,R
,1759471,115,0,1850,-0.205,0.008,1.002,-22.78,-16.98,-3.65,R
,1759481,72,0,1847,-0.229,0.083,1.002,-23.97,-14.92,-2.67,R
,1759491,70,0,1847,-0.186,0.003,1.010,-21.82,-13.56,-6.78,R
,1759501,73,0,1847,-0.176,0.003,1.042,-26.45,-17.29,-11.68,R
,1759511,63,0,1843,-0.214,-0.004,1.058,-27.27,-21.56,-14.80,R
,1759521,79,0,1846,-0.225,-0.005,1.071,-22.78,-23.39,-14.06,R
,1759531,64,0,1852,-0.218,-0.001,1.052,-12.19,-22.84,-12.49,R
,1759541,37,0,1846,-0.216,0.024,1.032,-7.06,-22.28,-10.11,R
,1759551,84,0,1847,-0.210,0.046,0.997,-4.17,-19.44,-9.25,R
,1759561,85,0,1840,-0.215,0.053,0.979,-2.35,-14.75,-7.53,R
,1759571,80,0,1845,-0.210,0.089,0.967,-6.46,-12.58,-6.96,R
,1759581,81,0,1843,-0.226,0.096,0.991,-11.01,-14.11,-6.86,R
,1759591,89,0,1846,-0.233,0.072,1.000,-17.55,-19.39,-7.88,R
,1759601,82,0,1842,-0.194,0.047,1.044,-16.16,-22.83,-7.96,R
,1759611,81,0,1843,-0.187,0.073,1.057,-12.03,-25.94,-9.36,R
,1759621,80,0,1843,-0.185,0.049,1.036,-8.92,-25.26,-12.37,R
,1759631,88,0,1840,-0.184,0.065,1.053,-10.60,-26.29,-11.73,R
,1759641,83,0,1843,-0.215,0.074,1.041,-12.19,-26.42,-10.12,R
,1759651,80,0,1841,-0.213,0.075,1.035,-12.52,-27.13,-6.77,R
,1759661,74,0,1844,-0.196,0.083,1.017,-17.81,-30.51,-5.01,R
,1759671,75,0,1844,-0.179,0.056,1.013,-26.49,-34.94,-8.08,R
,1759681,68,0,1840,-0.137,0.010,1.074,-28.40,-42.86,-12.45,R
,1759691,63,0,1844,-0.123,-0.004,1.081,-23.21,-48.69,-15.61,R
,1759701,65,0,1844,-0.095,-0.003,1.090,-16.89,-53.35,-17.42,R
,1759711,39,0,1840,-0.047,-0.069,1.089,-11.01,-55.16,-21.48,R
,1759721,0,0,1842,-0.091,-0.177,1.186,1.17,-53.59,-22.58,R
,1759731,0,0,1842,0.019,-0.057,1.035,-4.11,-39.85,-30.48,R
,1759741,0,0,1843,0.012,-0.058,1.003,-7.27,-28.91,-30.78,R
,1759751,0,0,1843,-0.012,-0.049,0.978,-2.54,-16.63,-28.16,R
,1759761,0,0,1840,-0.054,-0.044,0.946,-0.03,-8.92,-26.25,R
,1759771,0,0,1840,-0.097,0.012,0.999,-0.78,-2.51,-21.44,R
,1759781,0,0,1841,-0.097,0.006,1.007,4.38,-0.66,-21.64,R
,1759791,0,0,1840,-0.021,-0.003,1.036,8.91,-8.46,-31.50,R
,1759801,0,0,1841,-0.045,-0.017,0.995,2.78,-12.54,-42.64,R
,1759811,0,0,1840,-0.059,-0.005,0.968,2.27,-13.91,-45.74,R
,1759821,0,0,1840,-0.064,-0.010,0.947,3.69,-10.25,-46.74,R
,1759831,0,0,1845,-0.053,-0.013,0.894,3.17,-2.37,-43.61,R
,1759841,0,0,1840,-0.094,-0.010,0.905,-0.86,9.58,-38.23,R
,1759851,0,0,1843,-0.077,-0.005,0.936,-1.12,13.43,-34.23,R
,1759861,0,0,1842,-0.075,-0.019,0.894,-4.55,18.68,-29.15,R
,1759871,0,0,1843,-0.115,-0.019,0.960,-3.30,19.35,-26.03,R
,1759881,0,0,1845,-0.144,-0.036,0.882,-5.27,19.63,-24.40,R
,1759891,117,0,1847,-0.147,0.024,1.039,-4.23,10.84,-23.21,R
,1759901,219,0,1847,-0.108,0.066,1.010,5.78,5.14,-27.28,R
,1759911,275,0,1842,-0.123,0.077,1.060,1.87,1.84,-33.27,R
,1759921,320,0,1846,-0.161,0.101,1.017,-6.40,2.88,-33.80,R
,1759931,342,0,1849,-0.166,0.135,1.030,-10.66,6.94,-27.73,R
,1759941,271,0,1845,-0.155,0.063,1.046,-19.76,14.47,-25.27,R
,1759951,275,0,1846,-0.166,0.052,1.008,-31.91,20.55,-20.02,R
,1759961,418,0,1845,-0.230,0.000,1.085,-29.26,21.29,-13.47,R
,1759971,439,0,1843,-0.201,-0.001,1.100,-16.58,16.90,-8.23,R
,1759981,467,0,1842,-0.161,-0.030,1.150,-10.32,14.84,-9.06,R
,1759991,471,0,1846,-0.188,0.014,1.113,-2.63,11.92,-8.61,R
,1760001,453,0,1841,-0.193,0.033,1.066,1.57,10.44,-7.42,R
,1760011,502,0,1845,-0.172,0.051,1.033,-0.66,9.19,-6.41,R
,1760021,489,0,1842,-0.163,0.036,1.061,-2.00,9.13,-8.87,R
,1760031,579,0,1845,-0.133,0.065,1.007,-5.52,12.73,-11.53,R
,1760041,593,0,1845,-0.158,0.070,1.013,-13.90,11.51,-12.69,R
,1760051,583,0,1850,-0.176,0.066,0.983,-19.13,8.55,-11.22,R
,1760061,609,0,1851,-0.150,-0.020,1.007,-17.74,0.99,-14.48,R
,1760071,551,0,1847,-0.138,0.004,0.974,-22.19,-2.97,-14.11,R
,1760081,607,0,1855,-0.119,-0.052,1.000,-19.82,-5.58,-16.06,R
,1760091,601,0,1852,-0.085,-0.094,1.016,-16.63,-5.85,-18.02,R
,1760101,598,0,1847,-0.070,-0.119,0.993,-5.47,-1.90,-20.19,R
,1760111,599,0,1850,-0.073,-0.141,0.957,4.64,4.85,-20.41,R
,1760121,598,0,1849,-0.108,-0.104,0.948,13.80,15.52,-19.47,R
,1760131,598,0,1852,-0.166,-0.055,0.941,16.18,23.89,-16.29,R
,1760141,603,0,1853,-0.189,-0.041,0.973,11.40,23.46,-14.09,R
,1760151,602,0,1847,-0.212,0.020,1.010,6.13,19.11,-11.91,R
,1760161,606,0,1845,-0.279,0.063,0.987,-2.16,15.87,-6.08,R
,1760171,600,0,1849,-0.280,0.110,1.033,-8.93,8.51,-0.55,R
,1760181,609,0,1845,-0.302,0.156,1.040,-20.54,5.57,7.10,R
,1760191,735,0,1846,-0.307,0.165,1.032,-36.42,2.22,15.26,R
,1760201,759,0,1847,-0.294,0.149,1.050,-49.50,-2.75,21.80,R
,1760211,784,0,1843,-0.237,0.093,1.094,-56.98,-11.36,21.54,R
,1760221,848,0,1842,-0.192,0.058,1.062,-52.69,-21.50,15.77,R
,1760231,859,0,1841,-0.148,-0.000,1.052,-42.14,-25.26,8.47,R
,1760241,880,0,1845,-0.089,0.021,1.014,-31.94,-21.45,0.67,R
,1760251,942,0,1843,-0.084,0.017,0.975,-36.17,-9.13,-1.10,R
,1760261,1036,0,1844,-0.114,-0.006,1.037,-35.10,-0.39,-1.35,R
,1760271,1136,0,1841,-0.124,-0.042,1.036,-32.52,3.06,1.89,R
,1760281,1245,0,1843,-0.103,-0.080,1.018,-29.00,4.26,2.55,R
,1760291,1277,0,1842,-0.156,-0.052,1.014,-35.73,2.56,7.71,R
,1760301,1264,0,1840,-0.034,-0.082,1.260,-42.95,5.77,7.88,R
,1760311,1384,0,1840,-0.106,-0.067,1.019,-27.68,-7.29,3.60,R
,1760321,1467,0,1843,-0.122,-0.047,0.977,-23.85,-7.03,-1.71,R
,1760331,1663,0,1843,-0.151,-0.034,0.988,-19.04,-4.74,-5.21,R
,1760341,1712,0,1845,-0.162,-0.025,1.023,-14.60,-1.42,-5.38,R
,1760351,1808,0,1842,-0.147,-0.037,1.051,-14.13,2.30,-7.03,R
,1760361,1893,0,1840,-0.192,-0.022,0.904,-20.32,-31.32,-7.73,R
,1760371,1922,0,1845,-0.172,-0.063,1.036,-18.84,0.35,-9.70,R
,1760381,1938,0,1842,-0.191,-0.087,1.030,-21.97,-3.87,-8.87,R
,1760391,1984,0,1842,-0.177,-0.117,1.023,-16.22,-6.91,-7.36,R
,1760401,2009,0,1841,-0.123,-0.107,1.017,-15.87,-5.76,-8.66,R
,1760411,2038,0,1840,-0.143,-0.126,1.047,-16.75,-2.97,-8.72,R
,1760421,2128,0,1840,-0.150,-0.135,1.022,-13.36,-2.52,-5.03,R
,1760431,2146,0,1840,-0.141,-0.067,1.012,-10.32,-2.60,-2.49,R
,1760441,2173,0,1841,-0.112,-0.080,1.027,-7.61,-0.16,-3.67,R
,1760451,2173,0,1844,-0.118,-0.093,1.018,-9.81,2.16,-5.50,R
,1760461,2191,0,1842,-0.154,-0.069,1.013,-9.07,2.33,-6.08,R
,1760471,2192,0,1841,-0.151,-0.085,1.001,-10.13,0.76,-7.38,R
,1760481,2202,0,1843,-0.153,-0.097,1.011,-10.58,0.68,-8.87,R
,1760491,2224,0,1842,-0.193,-0.094,1.017,-10.32,2.00,-6.92,R
,1760501,2253,0,1842,-0.188,-0.084,1.018,-8.84,0.04,-7.30,R
,1760511,2257,0,1840,-0.182,-0.147,0.998,-7.33,-1.90,-7.77,R
,1760521,2278,0,1840,-0.190,-0.091,0.994,-11.99,-1.87,-8.78,R
,1760531,2300,0,1848,-0.188,-0.090,1.025,-10.13,-5.15,-9.64,R
,1760541,2322,0,1845,-0.199,-0.042,0.984,-5.85,-5.91,-9.19,R
,1760551,2352,0,1840,-0.127,-0.133,1.005,-1.21,-4.49,-12.35,R
,1760561,2341,0,1842,-0.144,-0.098,1.023,-6.05,-3.84,-14.55,R
,1760571,2387,0,1841,-0.152,-0.125,1.037,-3.94,-4.32,-13.36,R
,1760581,2386,0,1840,-0.150,-0.125,1.021,-0.54,-2.98,-10.86,R
,1760591,2371,0,1845,-0.101,-0.102,0.999,-0.26,-2.51,-11.18,R
,1760601,2352,0,1843,-0.113,-0.130,1.038,-5.88,-2.69,-11.94,R
,1760611,2361,0,1842,-0.128,-0.118,1.043,-5.87,-2.42,-11.87,R
,1760621,2379,0,1849,-0.131,-0.097,1.053,-2.71,0.24,-10.58,R
,1760631,2363,0,1844,-0.140,-0.086,1.035,-1.39,2.06,-8.49,R
,1760641,2358,0,1842,-0.126,-0.094,1.009,-4.84,2.53,-8.75,R
,1760651,2352,0,1843,-0.160,-0.099,0.990,-6.69,2.19,-8.22,R
,1760661,2346,0,1840,-0.180,-0.098,0.985,-5.00,2.84,-6.84,R
,1760671,2343,0,1840,-0.150,-0.085,1.023,-2.26,2.76,-8.51,R
,1760681,2350,0,1841,-0.167,-0.071,1.010,-3.76,2.09,-9.22,R
,1760691,2351,0,1841,-0.163,-0.077,1.014,-2.17,-0.68,-12.41,R
,1760701,2349,0,1840,-0.163,-0.072,1.060,0.50,-1.26,-13.42,R
,1760711,2350,0,1843,-0.186,-0.002,1.000,-1.29,0.18,-9.13,R
,1760721,2352,0,1846,-0.144,-0.041,0.998,-2.64,0.38,-12.09,R
,1760731,2352,0,1842,-0.186,-0.080,1.020,-8.87,-0.26,-8.80,R
,1760741,2352,0,1843,-0.155,-0.072,0.992,-8.10,-1.03,-7.12,R
,1760751,2352,0,1840,-0.158,-0.079,0.983,-9.26,-1.53,-6.32,R
,1760761,2346,0,1840,-0.161,-0.079,0.964,-9.36,-1.84,-5.65,R
,1760771,2368,0,1840,-0.173,-0.078,0.974,-8.26,-1.30,-4.43,R
,1760781,2332,0,1841,-0.191,-0.075,0.992,-8.02,0.33,-3.07,R
,1760791,2321,0,1850,-0.206,-0.055,1.019,-7.39,1.26,-2.38,R
,1760801,2333,0,1847,-0.206,-0.039,1.024,-9.19,-0.25,-4.52,R
,1760811,2320,0,1849,-0.222,-0.043,1.011,-10.10,-3.74,-6.70,R
,1760821,2331,0,1852,-0.221,-0.057,1.015,-10.80,-7.73,-9.09,R
,1760831,2335,0,1854,-0.197,-0.071,1.011,-10.00,-8.89,-9.51,R
,1760841,2327,0,1846,-0.167,-0.086,1.000,-9.18,-6.77,-8.60,R
,1760851,2331,0,1854,-0.165,-0.079,1.005,-8.74,-5.00,-7.42,R
,1760861,2329,0,1847,-0.130,-0.111,1.012,-8.95,-2.49,-7.30,R
,1760871,2322,0,1847,-0.155,-0.077,1.031,-10.20,-1.32,-3.07,R
,1760881,2323,0,1849,-0.132,-0.114,1.051,-10.02,-2.45,-3.64,R
,1760891,2325,0,1849,-0.124,-0.112,1.006,-10.52,-4.32,-4.83,R
,1760901,2323,0,1854,-0.145,-0.105,0.997,-12.29,-6.89,-4.81,R
,1760911,2304,0,1850,-0.149,-0.092,0.991,-11.64,-8.87,-3.79,R
,1760921,2318,0,1847,-0.126,-0.096,1.004,-11.04,-10.02,-5.70,R
,1760931,2323,0,1850,-0.140,-0.093,1.041,-9.76,-10.69,-8.28,R
,1760941,2276,0,1851,-0.181,-0.092,1.050,-4.42,-8.91,-9.68,R
,1760951,2290,0,1846,-0.106,-0.088,1.023,-4.00,-10.00,-12.43,R
,1760961,2298,0,1843,-0.152,-0.095,1.037,-4.48,-6.69,-12.43,R
,1760971,2305,0,1843,-0.145,-0.110,1.043,-1.84,-5.84,-12.03,R
,1760981,2313,0,1840,-0.086,-0.148,1.058,-0.83,-5.74,-14.17,R
,1760991,2314,0,1842,-0.136,-0.138,1.038,1.55,-1.47,-12.22,R
,1761001,2295,0,1841,-0.094,-0.158,1.025,-2.20,-0.69,-11.61,R
,1761011,2298,0,1842,-0.107,-0.149,1.030,-4.17,-0.25,-11.61,R
,1761021,2311,0,1843,-0.107,-0.139,1.027,-2.60,0.18,-11.10,R
,1761031,2316,0,1841,-0.121,-0.127,1.025,-1.85,0.55,-9.39,R
,1761041,2289,0,1841,-0.112,-0.120,1.013,-0.80,1.81,-8.54,R
,1761051,2289,0,1846,-0.128,-0.099,1.031,0.88,4.26,-8.66,R
,1761061,2275,0,1842,-0.134,-0.100,1.041,3.23,5.06,-9.76,R
,1761071,2282,0,1839,-0.135,-0.085,1.019,6.67,4.41,-12.63,R
,1761081,2285,0,1841,-0.161,-0.070,1.008,6.50,3.35,-14.41,R
,1761091,2288,0,1840,-0.158,-0.068,0.998,7.45,1.45,-17.22,R
,1761101,2295,0,1846,-0.155,-0.083,0.989,6.87,0.65,-19.58,R
,1761111,2298,0,1845,-0.163,-0.085,0.983,6.70,0.53,-19.45,R
,1761121,2295,0,1843,-0.156,-0.085,0.994,6.61,-0.02,-18.35,R
,1761131,2306,0,1843,-0.154,-0.064,0.992,7.17,0.74,-16.49,R
,1761141,2302,0,1847,-0.144,-0.071,1.017,5.14,2.45,-14.55,R
,1761151,2262,0,1850,-0.156,-0.070,1.010,4.26,3.55,-12.99,R
,1761161,2298,0,1842,-0.153,-0.071,1.016,3.81,4.48,-11.04,R
,1761171,2291,0,1845,-0.156,-0.068,1.028,4.39,5.06,-10.12,R
,1761181,2282,0,1844,-0.173,-0.058,1.018,4.53,6.22,-9.09,R
,1761191,2288,0,1840,-0.176,-0.052,1.011,3.66,5.51,-8.83,R
,1761201,2277,0,1846,-0.181,-0.031,0.999,1.98,5.93,-9.30,R
,1761211,2285,0,1840,-0.182,-0.031,1.012,0.65,5.66,-9.32,R
,1761221,2287,0,1841,-0.200,-0.035,1.004,-2.22,4.87,-8.81,R
,1761231,2288,0,1842,-0.198,-0.031,0.995,-4.64,1.84,-8.31,R
,1761241,2291,0,1843,-0.189,-0.047,0.996,-6.16,-1.49,-8.37,R
,1761251,2302,0,1841,-0.193,-0.047,0.990,-7.85,-3.58,-6.72,R
,1761261,2290,0,1841,-0.170,-0.059,1.001,-9.68,-4.07,-5.76,R
,1761271,2287,0,1843,-0.174,-0.064,0.998,-8.28,-3.50,-4.60,R
,1761281,2293,0,1842,-0.165,-0.066,1.004,-7.71,-0.84,-3.74,R
,1761291,2305,0,1842,-0.166,-0.060,1.022,-6.25,0.79,-4.03,R
,1761301,2299,0,1847,-0.169,-0.063,1.009,-7.91,1.57,-3.99,R
,1761311,2308,0,1840,-0.175,-0.073,1.011,-6.72,0.47,-4.87,R
,1761321,2306,0,1847,-0.146,-0.094,1.021,-5.90,-1.35,-6.20,R
,1761331,2301,0,1842,-0.152,-0.077,1.025,-4.20,0.33,-6.74,R
,1761341,2303,0,1846,-0.157,-0.073,1.021,-3.65,0.79,-6.98,R
,1761351,2308,0,1843,-0.167,-0.081,1.029,-4.60,0.44,-6.99,R
,1761361,2295,0,1843,-0.170,-0.081,1.024,-3.53,-0.81,-8.31,R
,1761371,2342,0,1840,-0.198,-0.064,1.026,-4.23,-1.07,-7.99,R
,1761381,2351,0,1841,-0.161,-0.080,1.020,-2.92,-0.87,-8.69,R
,1761391,2352,0,1841,-0.168,-0.082,1.023,-3.61,0.99,-7.83,R
,1761401,2357,0,1843,-0.165,-0.071,1.013,-2.39,2.09,-6.40,R
,1761411,2339,0,1843,-0.162,-0.081,1.006,-2.40,2.58,-5.77,R
,1761421,2320,0,1842,-0.178,-0.080,1.004,-2.97,1.95,-4.96,R
,1761431,2309,0,1846,-0.187,-0.068,0.982,-3.65,0.80,-4.95,R
,1761441,2357,0,1847,-0.198,-0.059,0.987,-4.48,-1.88,-5.47,R
,1761451,2359,0,1843,-0.186,-0.053,0.990,-4.89,-4.51,-6.46,R
,1761461,2355,0,1846,-0.183,-0.048,1.000,-6.23,-5.41,-6.83,R
,1761471,2355,0,1842,-0.179,-0.067,1.025,-5.09,-6.83,-7.65,R
,1761481,2361,0,1845,-0.173,-0.053,1.018,-5.18,-6.20,-7.18,R
,1761491,2362,0,1843,-0.170,-0.069,1.017,-6.45,-5.39,-7.03,R
,1761501,2356,0,1843,-0.168,-0.076,1.060,-6.32,-4.71,-7.13,R
,1761511,2319,0,1844,-0.171,-0.069,1.049,-5.62,-3.35,-7.13,R
,1761521,2330,0,1842,-0.150,-0.073,1.039,-6.05,-3.29,-6.95,R
,1761531,2325,0,1842,-0.141,-0.060,1.020,-5.32,-1.65,-6.61,R
,1761541,2320,0,1844,-0.147,-0.070,1.017,-5.07,-0.25,-7.16,R
,1761551,2329,0,1840,-0.133,-0.064,1.007,-1.18,-0.20,-8.35,R
,1761561,2311,0,1842,-0.154,-0.051,0.984,-0.48,1.60,-7.19,R
,1761571,2318,0,1841,-0.146,-0.037,0.999,-1.45,1.66,-5.91,R
,1761581,2317,0,1842,-0.149,-0.041,1.002,-1.79,2.07,-6.11,R
,1761591,2320,0,1850,-0.180,-0.038,1.008,-2.74,0.93,-5.97,R
,1761601,2320,0,1843,-0.173,-0.040,0.983,-3.70,-2.00,-6.72,R
,1761611,2314,0,1845,-0.176,-0.050,0.979,-4.58,-3.26,-6.66,R
,1761621,2320,0,1850,-0.192,-0.062,0.986,-5.13,-4.07,-6.19,R
,1761631,2314,0,1846,-0.180,-0.064,0.995,-5.01,-6.05,-6.90,R
,1761641,2311,0,1851,-0.167,-0.066,1.025,-7.24,-7.13,-6.90,R
,1761651,2309,0,1849,-0.170,-0.064,1.042,-6.63,-6.54,-6.54,R
,1761661,2317,0,1841,-0.146,-0.061,1.039,-7.53,-4.31,-5.73,R
,1761671,2314,0,1846,-0.138,-0.062,1.042,-8.10,-2.74,-5.50,R
,1761681,2317,0,1847,-0.140,-0.068,1.031,-7.03,-0.66,-5.33,R
,1761691,2313,0,1851,-0.137,-0.073,1.017,-5.58,2.10,-4.46,R
,1761701,2320,0,1851,-0.155,-0.065,1.012,-4.14,2.47,-3.71,R
,1761711,2317,0,1843,-0.159,-0.063,1.003,-4.63,2.01,-3.39,R
,1761721,2322,0,1846,-0.179,-0.051,1.005,-5.91,-0.29,-4.11,R
,1761731,2328,0,1845,-0.188,-0.034,1.000,-5.99,-2.02,-4.48,R
,1761741,2336,0,1849,-0.201,-0.023,1.000,-7.71,-1.85,-4.29,R
,1761751,2333,0,1845,-0.188,-0.026,0.995,-7.01,-3.50,-5.13,R
,1761761,2323,0,1850,-0.180,-0.038,1.016,-8.06,-4.71,-5.48,R
,1761771,2322,0,1843,-0.159,-0.056,1.017,-8.57,-4.28,-6.48,R
,1761781,2321,0,1840,-0.164,-0.062,1.017,-7.04,-1.65,-5.10,R
,1761791,2335,0,1842,-0.156,-0.065,1.026,-6.89,-0.87,-5.03,R
,1761801,2327,0,1840,-0.158,-0.066,1.005,-7.73,-0.42,-5.19,R
,1761811,2325,0,1842,-0.146,-0.076,1.023,-8.72,-1.06,-5.42,R
,1761821,2334,0,1841,-0.167,-0.072,1.035,-7.97,-0.97,-4.75,R
,1761831,2334,0,1845,-0.150,-0.063,1.025,-6.60,-1.09,-4.40,R
,1761841,2325,0,1847,-0.149,-0.070,1.012,-6.25,-0.63,-5.24,R
,1761851,2325,0,1844,-0.174,-0.066,1.010,-6.66,-0.65,-4.38,R
,1761861,2322,0,1842,-0.173,-0.063,0.999,-7.36,-0.98,-3.21,R
,1761871,2327,0,1842,-0.162,-0.071,1.010,-8.05,-1.32,-3.39,R
,1761881,2323,0,1841,-0.176,-0.061,1.019,-9.04,-1.42,-2.78,R
,1761891,2327,0,1840,-0.158,-0.060,1.016,-8.71,-2.20,-3.22,R
,1761901,2325,0,1842,-0.156,-0.062,1.012,-7.50,-2.86,-4.08,R
,1761911,2317,0,1840,-0.163,-0.074,0.994,-5.35,-3.68,-5.56,R
,1761921,2309,0,1843,-0.178,-0.064,1.015,-3.53,-2.95,-5.01,R
,1761931,2313,0,1840,-0.171,-0.041,1.015,-4.55,-0.71,-2.81,R
,1761941,2315,0,1840,-0.158,-0.039,1.036,-6.05,1.02,-3.38,R
,1761951,2320,0,1840,-0.170,-0.046,1.039,-7.04,1.52,-3.83,R
,1761961,2327,0,1841,-0.167,-0.054,1.009,-6.61,1.14,-4.64,R
,1761971,2319,0,1840,-0.163,-0.068,0.994,-5.87,-0.03,-5.15,R
,1761981,2319,0,1845,-0.159,-0.076,0.983,-5.26,-1.18,-5.67,R
,1761991,2309,0,1841,-0.174,-0.077,0.969,-4.32,-3.33,-6.37,R
,1762001,2318,0,1847,-0.175,-0.067,0.991,-1.48,-5.38,-7.01,R
,1762011,2320,0,1841,-0.183,-0.043,1.013,-2.19,-6.08,-6.80,R
,1762021,2301,0,1843,-0.179,-0.036,1.033,-4.81,-5.13,-5.94,R
,1762031,2304,0,1841,-0.167,-0.050,1.052,-5.27,-2.87,-6.14,R
,1762041,2298,0,1840,-0.165,-0.058,1.031,-4.86,-0.80,-5.91,R
,1762051,2298,0,1840,-0.148,-0.074,1.031,-3.70,-0.80,-6.00,R
,1762061,2259,0,1844,-0.143,-0.075,1.024,-5.10,1.14,-5.47,R
,1762071,2288,0,1840,-0.149,-0.079,1.020,-5.32,3.19,-4.78,R
,1762081,2290,0,1843,-0.164,-0.081,1.016,-5.42,3.26,-3.85,R
,1762091,2273,0,1840,-0.170,-0.071,1.003,-4.89,2.47,-4.09,R
,1762101,2268,0,1850,-0.191,-0.049,0.994,-5.56,0.22,-4.16,R
,1762111,2275,0,1842,-0.183,-0.049,0.993,-6.23,-3.76,-4.69,R
,1762121,2273,0,1841,-0.179,-0.050,0.989,-6.60,-5.44,-5.38,R
,1762131,2267,0,1841,-0.179,-0.051,0.991,-6.92,-6.63,-5.33,R
,1762141,2272,0,1844,-0.172,-0.052,1.003,-6.84,-7.58,-5.21,R
,1762151,2268,0,1845,-0.174,-0.050,1.031,-7.35,-7.24,-4.06,R
,1762161,2265,0,1842,-0.154,-0.049,1.027,-6.89,-5.55,-4.34,R
,1762171,2242,0,1843,-0.161,-0.046,1.025,-8.17,-4.14,-3.54,R
,1762181,2240,0,1842,-0.143,-0.062,1.028,-9.79,-4.45,-3.94,R
,1762191,2245,0,1845,-0.149,-0.071,1.022,-11.00,-3.85,-3.67,R
,1762201,2245,0,1845,-0.152,-0.075,1.018,-10.19,-3.03,-3.51,R
,1762211,2249,0,1841,-0.161,-0.068,1.004,-8.98,-2.51,-2.81,R
,1762221,2246,0,1848,-0.148,-0.080,1.009,-8.55,-2.28,-4.69,R
,1762231,2249,0,1841,-0.166,-0.082,0.996,-7.33,-1.88,-5.42,R
,1762241,2251,0,1845,-0.152,-0.090,1.003,-2.68,-2.68,-5.68,R
,1762251,2251,0,1847,-0.164,-0.082,1.047,-6.74,0.21,-4.60,R
,1762261,2249,0,1845,-0.170,-0.075,1.037,-4.77,0.22,-5.33,R
,1762271,2242,0,1849,-0.168,-0.072,1.029,-4.84,0.62,-5.33,R
,1762281,2251,0,1851,-0.179,-0.065,1.033,-5.26,0.87,-5.25,R
,1762291,2282,0,1847,-0.172,-0.063,1.024,-4.39,0.61,-4.72,R
,1762301,2259,0,1848,-0.171,-0.060,0.997,-5.71,0.51,-4.77,R
,1762311,2277,0,1847,-0.167,-0.055,1.005,-5.85,-0.77,-5.50,R
,1762321,2238,0,1853,-0.169,-0.056,0.996,-5.71,-1.06,-5.42,R
,1762331,2293,0,1851,-0.163,-0.066,1.007,-4.31,-1.29,-5.80,R
,1762341,2283,0,1843,-0.167,-0.058,1.020,-4.63,-0.26,-5.82,R
,1762351,2287,0,1841,-0.179,-0.052,1.015,-5.21,0.16,-5.36,R
,1762361,2294,0,1841,-0.168,-0.058,1.019,-4.31,-1.23,-5.93,R
,1762371,2305,0,1844,-0.172,-0.052,1.010,-5.76,-1.01,-5.94,R
,1762381,2305,0,1843,-0.167,-0.054,1.016,-5.81,-1.12,-5.70,R
,1762391,2303,0,1840,-0.167,-0.063,1.006,-6.02,-0.46,-6.58,R
,1762401,2294,0,1843,-0.180,-0.062,1.006,-5.12,-0.52,-6.11,R
,1762411,2287,0,1842,-0.176,-0.061,1.005,-4.25,-1.33,-5.85,R
,1762421,2308,0,1847,-0.180,-0.050,1.028,-5.24,-2.02,-5.58,R
,1762431,2304,0,1845,-0.178,-0.046,1.030,-6.58,-2.74,-4.58,R
,1762441,2303,0,1842,-0.171,-0.046,1.022,-7.48,-3.18,-4.16,R
,1762451,2307,0,1845,-0.170,-0.051,1.010,-8.00,-3.45,-4.25,R
,1762461,2307,0,1845,-0.168,-0.058,1.007,-8.69,-3.41,-3.70,R
,1762471,2302,0,1843,-0.157,-0.062,1.013,-9.30,-3.78,-2.81,R
,1762481,2300,0,1844,-0.165,-0.059,1.009,-9.62,-3.78,-2.87,R
,1762491,2298,0,1846,-0.167,-0.061,1.007,-9.73,-4.29,-3.59,R
,1762501,2301,0,1840,-0.175,-0.052,1.011,-10.02,-5.50,-4.11,R
,1762511,2305,0,1845,-0.184,-0.057,1.015,-9.76,-5.82,-3.42,R
,1762521,2314,0,1841,-0.170,-0.062,1.014,-10.60,-6.63,-3.45,R
,1762531,2320,0,1847,-0.187,-0.049,1.007,-12.46,-7.53,-2.87,R
,1762541,2324,0,1845,-0.185,-0.031,1.016,-14.08,-9.84,-2.14,R
,1762551,2325,0,1842,-0.182,-0.024,1.020,-19.76,-13.29,-1.76,R
,1762561,2320,0,1843,-0.200,-0.030,1.054,-20.45,-15.24,0.23,R
,1762571,2301,0,1843,-0.110,-0.097,1.026,-22.81,-18.48,-3.77,R
,1762581,2331,0,1839,-0.142,-0.086,0.995,-18.17,-14.69,-4.46,R
,1762591,2338,0,1838,-0.113,-0.096,0.990,-14.49,-10.68,-2.49,R
,1762601,2349,0,1840,-0.109,-0.111,0.998,-13.99,-8.22,-2.86,R
,1762611,2313,0,1840,-0.126,-0.113,0.990,-12.69,-6.84,-4.14,R
,1762621,2318,0,1842,-0.134,-0.113,1.006,-10.51,-6.91,-4.89,R
,1762631,2317,0,1840,-0.143,-0.114,1.026,-7.59,-4.51,-4.02,R
,1762641,2318,0,1844,-0.143,-0.105,1.015,-6.49,-1.71,-3.77,R
,1762651,2325,0,1845,-0.155,-0.096,1.016,-5.50,-0.31,-3.64,R
,1762661,2329,0,1839,-0.170,-0.099,1.027,-5.93,-0.97,-3.07,R
,1762671,2331,0,1843,-0.150,-0.107,1.010,-6.13,-3.18,-4.35,R
,1762681,2333,0,1840,-0.160,-0.092,1.003,-5.79,-2.61,-3.76,R
,1762691,2338,0,1840,-0.153,-0.085,1.036,-6.95,-3.62,-3.68,R
,1762701,2333,0,1845,-0.146,-0.082,1.026,-7.04,-4.36,-4.38,R
,1762711,2347,0,1845,-0.142,-0.090,1.037,-5.01,-4.10,-5.30,R
,1762721,2365,0,1846,-0.141,-0.083,1.029,-6.63,-2.57,-5.33,R
,1762731,2369,0,1848,-0.131,-0.084,1.032,-6.64,-0.22,-4.83,R
,1762741,2374,0,1851,-0.131,-0.083,1.031,-6.61,0.12,-4.60,R
,1762751,2383,0,1847,-0.136,-0.081,1.021,-7.56,-0.77,-4.81,R
,1762761,2382,0,1851,-0.147,-0.088,1.003,-8.43,-0.80,-4.98,R
,1762771,2384,0,1847,-0.140,-0.093,1.011,-6.98,-1.47,-5.27,R
,1762781,2384,0,1846,-0.146,-0.087,0.994,-4.17,-0.98,-4.93,R
,1762791,2388,0,1847,-0.165,-0.076,1.000,-3.96,-0.42,-4.77,R
,1762801,2393,0,1845,-0.163,-0.069,1.008,-4.16,-1.71,-4.46,R
,1762811,2385,0,1845,-0.159,-0.068,1.017,-4.16,-1.71,-5.15,R
,1762821,2416,0,1840,-0.150,-0.074,1.028,-5.76,-1.39,-5.27,R
,1762831,2413,0,1840,-0.151,-0.080,1.021,-6.66,-1.76,-6.11,R
,1762841,2400,0,1847,-0.151,-0.089,1.016,-6.34,-1.58,-5.80,R
,1762851,2406,0,1843,-0.141,-0.093,1.020,-5.84,-1.36,-6.08,R
,1762861,2406,0,1841,-0.133,-0.101,1.021,-4.46,-0.49,-5.71,R
,1762871,2428,0,1840,-0.140,-0.101,1.000,-5.73,0.38,-5.12,R
,1762881,2422,0,1845,-0.157,-0.087,1.000,-4.32,-0.10,-5.09,R
,1762891,2415,0,1841,-0.172,-0.069,1.004,-6.57,-0.72,-3.65,R
,1762901,2423,0,1841,-0.161,-0.069,1.002,-6.03,-3.45,-3.90,R
,1762911,2429,0,1838,-0.151,-0.075,1.006,-8.72,-4.25,-4.38,R
,1762921,2429,0,1839,-0.156,-0.082,1.011,-9.58,-4.87,-4.57,R
,1762931,2439,0,1840,-0.144,-0.079,1.049,-9.26,-3.18,-3.12,R
,1762941,2463,0,1842,-0.143,-0.081,1.052,-7.88,-1.59,-4.29,R
,1762951,2491,0,1843,-0.142,-0.074,1.000,-6.03,-0.43,-4.99,R
,1762961,2495,0,1840,-0.143,-0.083,1.024,-5.52,0.61,-5.01,R
,1762971,2501,0,1840,-0.144,-0.107,1.039,-4.40,0.10,-4.29,R
,1762981,2516,0,1840,-0.147,-0.093,0.985,-5.85,-0.80,-4.17,R
,1762991,2518,0,1841,-0.157,-0.069,0.992,-5.96,-2.40,-4.28,R
,1763001,2527,0,1840,-0.156,-0.076,1.010,-6.55,-1.36,-3.96,R
,1763011,2527,0,1841,-0.160,-0.073,1.029,-7.26,0.18,-3.77,R
,1763021,2538,0,1841,-0.162,-0.080,1.033,-8.08,-0.48,-4.23,R
,1763031,2544,0,1840,-0.154,-0.076,1.032,-7.01,-1.47,-4.98,R
,1763041,2550,0,1843,-0.142,-0.102,1.011,-8.10,-1.91,-5.07,R
,1763051,2548,0,1846,-0.161,-0.102,1.004,-8.48,-2.69,-5.04,R
,1763061,2559,0,1849,-0.143,-0.104,1.003,-8.25,-3.38,-5.15,R
,1763071,2556,0,1840,-0.141,-0.099,1.000,-7.04,-2.97,-4.26,R
,1763081,2559,0,1850,-0.141,-0.096,1.038,-7.71,-0.75,-4.52,R
,1763091,2586,0,1840,-0.143,-0.089,1.035,-8.66,1.60,-4.40,R
,1763101,2595,0,1841,-0.138,-0.118,1.027,-10.49,2.82,-3.47,R
,1763111,2621,0,1845,-0.121,-0.153,0.997,-5.87,2.64,-3.59,R
,1763121,2643,0,1841,-0.143,-0.094,1.020,-7.00,4.82,-3.67,R
,1763131,2672,0,1845,-0.150,-0.092,1.001,-5.73,2.80,-4.25,R
,1763141,2661,0,1847,-0.162,-0.084,0.986,-7.38,0.71,-5.44,R
,1763151,2695,0,1843,-0.185,-0.070,0.970,-6.10,-0.65,-6.14,R
,1763161,2687,0,1846,-0.199,-0.062,0.995,-5.32,-2.80,-5.82,R
,1763171,2695,0,1844,-0.190,-0.064,0.981,-4.93,-3.99,-4.67,R
,1763181,2717,0,1850,-0.157,-0.072,1.010,-6.46,-7.10,-5.44,R
,1763191,2722,0,1843,-0.125,-0.109,1.018,-5.13,-5.73,-6.90,R
,1763201,2752,0,1851,-0.120,-0.101,1.022,-4.46,-2.03,-6.05,R
,1763211,2759,0,1846,-0.104,-0.125,1.046,-2.80,2.39,-5.12,R
,1763221,2766,0,1850,-0.114,-0.107,1.032,-3.03,6.41,-3.53,R
,1763231,2777,0,1847,-0.128,-0.107,1.044,-2.89,8.74,-2.70,R
,1763241,2774,0,1844,-0.151,-0.115,1.014,-1.90,7.97,-2.51,R
,1763251,2785,0,1840,-0.174,-0.085,0.999,-3.58,3.83,-3.44,R
,1763261,2785,0,1850,-0.178,-0.085,0.999,-4.31,-1.10,-5.80,R
,1763271,2800,0,1845,-0.184,-0.056,1.025,-4.64,-2.25,-5.93,R
,1763281,2810,0,1846,-0.177,-0.067,1.035,-3.59,-1.49,-5.28,R
,1763291,2802,0,1846,-0.171,-0.069,1.023,-2.93,-0.97,-5.74,R
,1763301,2798,0,1843,-0.179,-0.056,1.010,-3.68,-0.29,-5.09,R
,1763311,2770,0,1843,-0.160,-0.068,1.038,-3.16,0.42,-5.01,R
,1763321,2770,0,1847,-0.150,-0.075,1.043,-1.73,2.91,-4.64,R
,1763331,2748,0,1841,-0.166,-0.076,1.038,-2.23,5.28,-3.38,R
,1763341,2741,0,1843,-0.147,-0.094,1.006,-1.26,4.41,-3.93,R
,1763351,2687,0,1841,-0.155,-0.108,0.990,-0.61,2.10,-4.83,R
,1763361,2682,0,1842,-0.170,-0.090,0.978,2.13,-1.94,-5.06,R
,1763371,2657,0,1843,-0.168,-0.083,0.948,4.09,-8.39,-5.56,R
,1763381,2624,0,1842,-0.165,-0.102,0.926,5.74,-18.84,-7.90,R
,1763391,2448,0,1842,-0.152,-0.150,0.944,8.36,-32.55,-14.43,R
,1763401,2329,0,1841,-0.158,-0.171,0.962,15.39,-46.03,-20.51,R
,1763411,2131,0,1840,-0.189,-0.137,0.993,23.19,-54.49,-22.66,R
,1763421,2007,0,1841,-0.153,-0.072,1.060,34.01,-54.92,-20.51,R
,1763431,1742,0,1840,-0.125,-0.019,1.137,29.72,-42.83,-12.48,R
,1763441,1680,0,1840,-0.080,0.025,1.201,27.65,-28.07,-9.18,R
,1763451,1493,0,1840,-0.083,0.026,1.223,25.20,-15.73,-8.28,R
,1763461,1194,0,1840,-0.087,0.001,1.222,23.92,-11.96,-7.96,R
,1763471,738,0,1839,-0.120,-0.033,1.165,18.97,-13.64,-6.90,R
,1763481,435,0,1847,-0.126,-0.060,1.128,16.35,-16.37,-5.82,R
,1763491,529,0,1842,-0.138,-0.056,1.065,17.78,-16.58,-5.48,R
,1763501,385,0,1840,-0.171,-0.073,1.047,19.95,-17.79,-4.63,R
,1763511,241,0,1844,-0.206,-0.050,1.015,23.00,-18.13,-0.63,R
,1763521,0,0,1841,-0.225,0.014,1.011,22.61,-21.45,3.52,R
,1763531,0,0,1840,-0.228,0.037,1.027,17.13,-27.74,7.37,R
,1763541,0,0,1840,-0.196,0.036,1.050,7.69,-41.58,5.71,R
,1763551,0,0,1840,-0.130,-0.036,1.084,-2.95,-56.77,-3.09,R
,1763561,0,0,1840,-0.101,-0.016,1.133,-7.07,-68.74,-11.30,R
,1763571,0,0,1841,-0.076,-0.042,1.117,-7.97,-68.49,-16.70,R
,1763581,0,0,1851,-0.041,-0.040,1.071,0.90,-60.00,-20.55,R
,1763591,0,0,1846,-0.046,-0.053,0.994,8.47,-39.93,-17.22,R
,1763601,0,0,1850,-0.050,-0.052,1.002,17.03,-30.11,-15.56,R
,1763611,0,0,1840,-0.058,-0.078,0.989,22.21,-22.46,-13.04,R
,1763621,0,0,1843,-0.062,-0.011,0.958,26.99,-18.97,-11.10,R
,1763631,0,0,1845,-0.038,-0.011,1.009,31.45,-18.11,-6.93,R
,1763641,0,0,1845,-0.026,-0.003,0.928,18.91,-17.03,-9.15,R
,1763651,0,0,1841,-0.029,-0.013,0.968,10.48,-18.03,-8.55,R
,1763661,0,0,1845,-0.037,0.015,0.980,2.78,-22.48,-5.51,R
,1763671,0,0,1840,0.004,0.002,0.981,-2.45,-25.87,-4.45,R
,1763681,0,0,1847,0.053,-0.017,1.018,-9.09,-24.17,-5.99,R
,1763691,0,0,1842,0.089,-0.029,1.006,-9.58,-20.66,-11.44,R
,1763701,0,0,1846,0.102,-0.031,0.988,-5.90,-10.71,-15.12,R
,1763711,0,0,1846,0.077,0.005,0.982,0.67,4.85,-12.67,R
,1763721,0,0,1847,0.032,0.020,0.979,8.30,18.47,-7.80,R
,1763731,0,0,1842,0.022,0.041,1.000,14.93,22.19,-4.78,R
,1763741,0,0,1846,0.012,0.069,0.987,18.38,19.20,-4.99,R
,1763751,0,0,1840,-0.018,0.100,0.923,17.57,15.68,-5.15,R
,1763761,0,0,1840,0.005,0.105,0.960,12.00,10.13,-7.44,R
,1763771,0,0,1840,0.014,0.125,0.954,4.06,5.09,-9.16,R
,1763781,0,0,1843,-0.008,0.099,0.963,-3.44,-1.29,-8.78,R
,1763791,0,0,1841,0.003,0.085,1.026,-8.48,-5.67,-8.41,R
,1763801,0,0,1840,0.035,0.078,1.055,-7.00,-8.28,-9.68,R
,1763811,0,0,1840,0.069,0.061,1.038,-5.21,-7.39,-12.75,R
,1763821,0,0,1844,0.072,0.058,1.043,-0.00,-1.61,-15.53,R
,1763831,0,0,1845,0.031,0.067,1.033,6.45,4.50,-15.04,R
,1763841,0,0,1843,0.000,0.089,1.035,12.73,10.67,-11.79,R
,1763851,0,0,1842,-0.011,0.102,1.037,15.31,13.43,-9.42,R
,1763861,0,0,1845,-0.020,0.098,1.016,13.63,14.00,-8.90,R
,1763871,0,0,1840,-0.033,0.099,1.010,9.45,12.10,-8.67,R
,1763881,0,0,1844,-0.051,0.104,1.016,4.73,7.42,-8.54,R
,1763891,0,0,1846,-0.055,0.096,1.029,0.32,1.77,-8.00,R
,1763901,0,0,1840,-0.053,0.090,1.032,-3.68,-4.81,-8.28,R
,1763911,0,0,1842,-0.045,0.075,1.035,-5.47,-9.45,-8.54,R
,1763921,0,0,1840,-0.019,0.055,1.043,-4.83,-11.82,-9.54,R
,1763931,0,0,1840,-0.009,0.057,1.050,-4.20,-10.92,-9.51,R
,1763941,0,0,1841,-0.000,0.042,1.044,0.24,-6.87,-10.78,R
,1763951,0,0,1841,0.010,0.041,1.022,4.19,-1.41,-13.01,R
,1763961,0,0,1843,-0.014,0.049,1.016,6.68,5.83,-12.46,R
,1763971,0,0,1843,-0.049,0.059,1.014,10.35,10.18,-10.06,R
,1763981,0,0,1844,-0.070,0.071,1.013,11.84,11.74,-7.80,R
,1763991,0,0,1843,-0.072,0.079,1.004,8.88,10.19,-6.16,R
,1764001,0,0,1840,-0.079,0.079,1.016,4.56,5.40,-6.57,R
,1764011,0,0,1841,-0.071,0.080,1.011,0.58,-0.98,-7.94,R
,1764021,0,0,1840,-0.068,0.080,1.012,-3.53,-5.97,-8.86,R
,1764031,0,0,1840,-0.061,0.076,1.018,-5.24,-9.52,-9.27,R
,1764041,0,0,1842,-0.044,0.065,1.029,-5.58,-10.84,-9.32,R
,1764051,0,0,1842,-0.027,0.057,1.027,-4.22,-10.02,-9.24,R
,1764061,0,0,1845,-0.006,0.054,1.038,-1.19,-6.22,-9.76,R
,1764071,0,0,1843,-0.008,0.063,1.034,1.08,-1.44,-9.68,R
,1764081,0,0,1846,-0.014,0.068,1.022,4.03,2.27,-10.26,R
,1764091,0,0,1840,-0.023,0.073,1.009,6.01,5.58,-10.23,R
,1764101,0,0,1846,-0.042,0.093,1.007,6.10,9.29,-9.22,R
,1764111,0,0,1847,-0.055,0.105,1.005,5.03,9.37,-8.49,R
,1764121,0,0,1847,-0.060,0.107,1.006,2.21,6.67,-8.28,R
,1764131,0,0,1847,-0.064,0.114,1.011,-0.98,2.59,-8.83,R
,1764141,0,0,1846,-0.059,0.111,1.014,-3.07,-1.81,-9.85,R
,1764151,0,0,1845,-0.048,0.103,1.017,-2.98,-4.84,-10.31,R
,1764161,16,0,1846,-0.034,0.104,1.019,-1.35,-4.03,-10.34,R
,1764171,16,0,1842,-0.027,0.104,1.024,1.45,-0.83,-9.56,R
,1764181,23,0,1843,-0.022,0.107,1.012,4.32,3.13,-9.10,R
,1764191,26,0,1840,-0.026,0.114,1.000,5.46,8.58,-8.57,R
,1764201,31,0,1837,-0.039,0.125,0.993,5.78,11.72,-8.20,R
,1764211,17,0,1840,-0.054,0.137,0.995,5.08,11.90,-7.96,R
,1764221,25,0,1843,-0.061,0.143,0.990,2.39,10.36,-6.80,R
,1764231,35,0,1841,-0.068,0.151,0.987,-2.11,8.90,-5.32,R
,1764241,28,0,1841,-0.075,0.158,0.990,-6.37,6.58,-4.45,R
,1764251,25,0,1844,-0.076,0.156,1.011,-10.02,1.42,-4.57,R
,1764261,25,0,1843,-0.070,0.144,1.012,-11.84,-2.86,-5.01,R
,1764271,29,0,1845,-0.053,0.133,1.022,-12.37,-5.97,-5.07,R
,1764281,29,0,1842,-0.038,0.118,1.036,-12.61,-6.02,-4.77,R
,1764291,29,0,1840,-0.036,0.102,1.030,-10.72,-2.39,-4.06,R
,1764301,30,0,1841,-0.033,0.099,1.030,-8.25,2.30,-3.94,R
,1764311,26,0,1840,-0.039,0.090,1.031,-5.01,4.00,-4.64,R
,1764321,29,0,1844,-0.043,0.087,1.043,-1.21,3.49,-5.93,R
,1764331,29,0,1842,-0.036,0.093,1.036,1.60,3.55,-7.33,R
,1764341,26,0,1838,-0.040,0.094,1.027,3.37,4.42,-7.74,R
,1764351,33,0,1840,-0.055,0.122,1.015,1.83,6.39,-5.65,R
,1764361,31,0,1841,-0.071,0.124,1.010,-0.46,8.44,-4.35,R
,1764371,32,0,1840,-0.077,0.126,1.015,-4.46,7.29,-4.49,R
,1764381,30,0,1840,-0.087,0.117,1.011,-8.11,3.77,-4.55,R
,1764391,26,0,1843,-0.094,0.109,1.021,-9.74,-1.87,-4.29,R
,1764401,27,0,1847,-0.089,0.108,1.024,-10.84,-6.25,-4.12,R
,1764411,30,0,1843,-0.071,0.101,1.023,-10.81,-8.20,-4.23,R
,1764421,29,0,1842,-0.065,0.094,1.029,-10.31,-6.54,-5.45,R
,1764431,33,0,1842,-0.062,0.090,1.020,-8.78,-3.73,-5.99,R
,1764441,26,0,1845,-0.067,0.091,1.022,-5.15,-0.49,-5.71,R
,1764451,39,0,1841,-0.069,0.090,1.009,-1.65,2.96,-4.96,R
,1764461,26,0,1846,-0.069,0.099,1.003,1.39,5.55,-4.48,R
,1764471,21,0,1840,-0.078,0.126,1.001,0.73,5.57,-4.05,R
,1764481,35,0,1840,-0.086,0.131,1.001,-0.98,4.00,-4.67,R
,1764491,0,0,1842,-0.083,0.140,1.009,-4.63,0.74,-4.99,R
,1764501,32,0,1847,-0.080,0.133,1.010,-7.61,-2.74,-5.10,R
,1764511,38,0,1843,-0.064,0.118,1.015,-10.13,-4.65,-5.04,R
,1764521,30,0,1840,-0.062,0.108,1.020,-11.22,-4.05,-5.25,R
,1764531,31,0,1841,-0.057,0.100,1.034,-8.89,-2.28,-5.41,R
,1764541,23,0,1843,-0.050,0.096,1.033,-6.23,-1.07,-6.22,R
,1764551,28,0,1842,-0.053,0.100,1.031,-3.30,0.06,-6.31,R
,1764561,18,0,1840,-0.058,0.103,1.027,-1.52,1.05,-5.64,R
,1764571,25,0,1841,-0.055,0.114,1.019,-1.39,1.83,-5.24,R
,1764581,31,0,1842,-0.056,0.121,1.013,-1.99,2.85,-5.19,R
,1764591,31,0,1845,-0.073,0.122,1.017,-3.30,2.67,-5.18,R
,1764601,27,0,1845,-0.075,0.112,1.008,-3.09,0.33,-5.71,R
,1764611,30,0,1840,-0.083,0.112,1.007,-3.77,-2.17,-5.88,R
,1764621,29,0,1843,-0.095,0.102,1.043,-2.97,-7.10,-5.61,R
,1764631,31,0,1841,-0.099,0.107,1.060,0.52,-12.61,-2.96,R
,1764641,32,0,1843,-0.069,0.110,1.081,4.47,-14.49,-0.52,R
,1764651,25,0,1842,-0.041,0.122,1.067,7.97,-14.13,-0.00,R
,1764661,34,0,1847,-0.021,0.137,1.037,8.88,-10.65,-1.42,R
,1764671,23,0,1841,-0.024,0.151,1.019,7.46,-5.59,-3.27,R
,1764681,30,0,1845,-0.038,0.149,1.011,4.88,-2.23,-5.12,R
,1764691,31,0,1842,-0.050,0.143,1.001,2.70,-0.83,-5.22,R
,1764701,37,0,1840,-0.050,0.137,0.998,0.16,-0.72,-3.99,R
,1764711,40,0,1841,-0.052,0.130,0.981,-2.54,-0.43,-2.89,R
,1764721,56,0,1841,-0.060,0.130,0.984,-5.79,0.38,-1.96,R
,1764731,31,0,1841,-0.059,0.131,0.991,-8.31,-1.39,-2.87,R
,1764741,24,0,1840,-0.054,0.127,0.995,-9.18,-2.25,-3.44,R
,1764751,32,0,1840,-0.053,0.122,0.978,-8.95,-1.91,-3.85,R
,1764761,39,0,1844,-0.050,0.121,0.989,-9.73,-0.32,-3.59,R
,1764771,39,0,1843,-0.056,0.128,1.008,-10.48,1.69,-3.67,R
,1764781,33,0,1840,-0.051,0.121,1.011,-9.10,1.78,-4.51,R
,1764791,32,0,1842,-0.050,0.117,1.006,-7.87,2.64,-4.74,R
,1764801,35,0,1843,-0.058,0.116,1.006,-6.39,3.69,-4.14,R
,1764811,39,0,1841,-0.056,0.124,0.998,-5.52,4.88,-3.47,R
,1764821,27,0,1839,-0.052,0.128,0.994,-6.52,7.05,-2.37,R
,1764831,29,0,1842,-0.047,0.125,0.997,-8.58,9.57,-1.76,R
,1764841,27,0,1851,-0.047,0.125,0.993,-10.55,12.62,-1.45,R
,1764851,30,0,1843,-0.066,0.125,0.988,-11.03,15.71,-1.33,R
,1764861,31,0,1844,-0.083,0.125,1.001,-12.61,15.83,-1.15,R
,1764871,31,0,1851,-0.092,0.126,1.012,-13.44,13.00,-1.83,R
,1764881,31,0,1846,-0.092,0.115,1.029,-14.83,7.60,-3.06,R
,1764891,25,0,1844,-0.091,0.118,1.040,-14.00,2.12,-4.23,R
,1764901,23,0,1845,-0.094,0.124,1.039,-12.97,-2.14,-4.70,R
,1764911,22,0,1841,-0.088,0.121,1.037,-11.26,-3.29,-4.89,R
,1764921,27,0,1843,-0.083,0.123,1.032,-9.94,-2.07,-4.12,R
,1764931,26,0,1842,-0.083,0.121,1.033,-8.05,1.29,-3.42,R
,1764941,31,0,1840,-0.087,0.121,1.020,-6.75,4.70,-2.52,R
,1764951,29,0,1843,-0.088,0.117,1.026,-6.74,6.16,-2.20,R
,1764961,33,0,1845,-0.093,0.111,1.022,-6.68,4.87,-3.16,R
,1764971,0,0,1843,-0.087,0.100,1.020,-7.22,2.30,-3.54,R
,1764981,27,0,1840,-0.090,0.106,1.028,-8.05,1.71,-3.74,R
,1764991,32,0,1845,-0.087,0.117,1.021,-8.86,1.13,-3.06,R
,1765001,33,0,1841,-0.090,0.124,1.011,-9.35,1.75,-2.55,R
,1765011,27,0,1843,-0.088,0.118,1.016,-10.25,2.74,-2.14,R
,1765021,41,0,1843,-0.083,0.113,1.020,-9.82,2.04,-2.26,R
,1765031,33,0,1846,-0.083,0.114,1.017,-9.65,1.55,-2.03,R
,1765041,29,0,1849,-0.088,0.110,1.022,-9.24,2.29,-2.03,R
,1765051,35,0,1842,-0.088,0.104,1.027,-8.95,1.77,-2.08,R
,1765061,30,0,1844,-0.085,0.098,1.028,-9.29,0.91,-3.07,R
,1765071,32,0,1846,-0.085,0.097,1.025,-9.13,-0.28,-3.51,R
,1765081,31,0,1842,-0.080,0.098,1.037,-8.39,-0.71,-3.51,R
,1765091,22,0,1840,-0.082,0.096,1.029,-8.17,0.18,-3.10,R
,1765101,26,0,1845,-0.083,0.097,1.035,-7.26,1.49,-3.09,R
,1765111,21,0,1852,-0.085,0.099,1.030,-7.18,1.95,-3.16,R
,1765121,33,0,1841,-0.082,0.101,1.034,-7.24,1.00,-4.26,R
,1765131,23,0,1850,-0.083,0.103,1.029,-6.95,-0.19,-4.69,R
,1765141,27,0,1840,-0.084,0.101,1.026,-6.52,-0.16,-4.58,R
,1765151,27,0,1845,-0.089,0.102,1.031,-6.29,-0.49,-4.25,R
,1765161,25,0,1842,-0.086,0.106,1.028,-5.61,-0.95,-4.77,R
,1765171,30,0,1844,-0.085,0.103,1.022,-5.41,-0.98,-5.44,R
,1765181,35,0,1846,-0.089,0.102,1.020,-4.58,-1.12,-5.44,R
,1765191,35,0,1845,-0.087,0.105,1.010,-4.49,-0.40,-4.87,R
,1765201,33,0,1851,-0.094,0.108,1.001,-4.90,1.69,-4.20,R
,1765211,36,0,1843,-0.105,0.105,1.006,-5.70,2.65,-3.93,R
,1765221,27,0,1845,-0.099,0.109,1.016,-7.15,1.31,-4.64,R
,1765231,33,0,1841,-0.098,0.111,1.014,-7.81,-0.97,-4.98,R
,1765241,32,0,1843,-0.095,0.108,1.012,-7.58,-1.81,-5.01,R
,1765251,21,0,1840,-0.093,0.117,1.008,-7.03,-1.26,-4.75,R
,1765261,0,0,1842,-0.090,0.109,1.004,-7.82,0.67,-3.73,R
,1765271,41,0,1848,-0.089,0.115,0.998,-7.91,3.77,-2.52,R
,1765281,33,0,1844,-0.102,0.122,1.005,-9.15,7.22,-1.13,R
,1765291,23,0,1842,-0.114,0.130,1.009,-10.90,7.19,-0.89,R
,1765301,25,0,1842,-0.111,0.110,1.016,-10.61,4.68,-1.19,R
,1765311,18,0,1847,-0.106,0.104,1.024,-9.70,1.83,-2.49,R
,1765321,31,0,1846,-0.106,0.104,1.015,-9.53,0.12,-2.92,R
,1765331,25,0,1842,-0.104,0.103,1.007,-8.93,-0.19,-3.03,R
,1765341,20,0,1840,-0.102,0.107,1.006,-8.43,1.64,-2.46,R
,1765351,28,0,1841,-0.107,0.112,1.008,-8.45,4.80,-1.87,R
,1765361,23,0,1845,-0.108,0.101,1.025,-8.63,4.76,-2.25,R
,1765371,27,0,1843,-0.108,0.098,1.036,-8.00,1.97,-3.76,R
,1765381,26,0,1842,-0.101,0.093,1.039,-6.84,-1.35,-4.43,R
,1765391,24,0,1840,-0.101,0.100,1.035,-5.68,-3.45,-4.86,R
,1765401,25,0,1843,-0.096,0.106,1.027,-5.74,-3.87,-4.67,R
,1765411,0,0,1845,-0.091,0.110,1.021,-5.85,-1.55,-4.09,R
,1765421,23,0,1841,-0.094,0.111,1.010,-6.08,1.93,-3.12,R
,1765431,21,0,1840,-0.098,0.107,1.008,-7.04,4.26,-2.34,R
,1765441,26,0,1845,-0.106,0.103,1.028,-7.96,2.94,-2.63,R
,1765451,30,0,1842,-0.107,0.102,1.026,-8.84,-0.39,-3.48,R
,1765461,26,0,1843,-0.105,0.097,1.033,-8.84,-3.52,-4.22,R
,1765471,28,0,1842,-0.103,0.092,1.033,-9.09,-6.00,-4.83,R
,1765481,26,0,1842,-0.102,0.093,1.027,-7.71,-6.94,-5.19,R
,1765491,25,0,1839,-0.094,0.090,1.035,-6.51,-5.94,-5.67,R
,1765501,21,0,1842,-0.094,0.094,1.028,-5.07,-4.10,-5.99,R
,1765511,27,0,1846,-0.095,0.092,1.028,-3.59,-2.05,-5.82,R
,1765521,28,0,1844,-0.096,0.094,1.023,-2.26,-0.63,-5.79,R
,1765531,0,0,1843,-0.104,0.100,1.019,-1.81,0.58,-5.24,R
,1765541,48,0,1843,-0.111,0.101,1.009,-1.70,1.32,-5.21,R
,1765551,44,0,1840,-0.112,0.108,1.001,-3.24,0.80,-5.13,R
,1765561,37,0,1841,-0.121,0.111,1.000,-4.92,-0.43,-5.38,R
,1765571,33,0,1840,-0.122,0.108,1.003,-6.17,-2.57,-5.27,R
,1765581,25,0,1841,-0.113,0.106,1.008,-7.10,-4.02,-5.06,R
,1765591,0,0,1847,-0.107,0.106,0.996,-7.62,-4.45,-5.01,R
,1765601,35,0,1843,-0.103,0.109,0.994,-8.05,-3.24,-4.54,R
,1765611,38,0,1841,-0.102,0.103,1.001,-7.53,-0.72,-4.25,R
,1765621,3,0,1844,-0.099,0.101,0.997,-7.19,0.30,-3.90,R
,1765631,41,0,1840,-0.103,0.099,1.014,-7.68,0.93,-3.76,R
,1765641,37,0,1845,-0.105,0.102,1.005,-7.87,0.51,-4.11,R
,1765651,36,0,1849,-0.102,0.104,1.014,-7.87,-0.46,-4.26,R
,1765661,33,0,1843,-0.105,0.107,1.008,-8.16,-1.04,-4.54,R
,1765671,0,0,1842,-0.102,0.106,1.012,-8.51,-0.86,-4.86,R
,1765681,30,0,1839,-0.105,0.104,1.025,-8.95,-0.40,-4.57,R
,1765691,33,0,1840,-0.108,0.104,1.021,-8.37,-0.58,-4.66,R
,1765701,29,0,1840,-0.106,0.101,1.026,-7.26,-0.86,-4.26,R
,1765711,27,0,1840,-0.105,0.103,1.025,-6.22,-0.49,-4.09,R
,1765721,41,0,1840,-0.106,0.108,1.022,-5.76,0.26,-3.61,R
,1765731,37,0,1840,-0.107,0.107,1.018,-5.96,0.50,-3.44,R
,1765741,27,0,1839,-0.110,0.105,1.013,-5.81,0.27,-3.36,R
,1765751,21,0,1841,-0.102,0.108,1.014,-6.61,-0.52,-3.42,R
,1765761,37,0,1842,-0.104,0.106,1.007,-7.06,-0.60,-3.64,R
,1765771,45,0,1850,-0.105,0.099,1.007,-7.65,-0.42,-4.03,R
,1765781,23,0,1847,-0.099,0.097,1.009,-7.94,-0.80,-4.34,R
,1765791,41,0,1850,-0.096,0.089,1.003,-9.18,-0.83,-4.63,R
,1765801,10,0,1847,-0.102,0.091,1.014,-9.00,-0.51,-4.86,R
,1765811,32,0,1842,-0.104,0.090,1.019,-8.32,-0.46,-4.57,R
,1765821,28,0,1845,-0.102,0.089,1.006,-7.85,-0.83,-4.69,R
,1765831,46,0,1845,-0.102,0.096,1.010,-7.85,0.06,-5.03,R
,1765841,33,0,1842,-0.101,0.088,1.012,-8.11,-0.46,-5.44,R
,1765851,26,0,1847,-0.107,0.091,1.014,-7.71,0.51,-4.81,R
,1765861,33,0,1843,-0.104,0.092,1.014,-7.96,0.18,-5.21,R
,1765871,29,0,1849,-0.099,0.086,1.004,-8.29,-0.23,-5.88,R
,1765881,44,0,1841,-0.095,0.078,0.995,-8.39,-1.44,-6.63,R
,1765891,42,0,1840,-0.079,0.071,0.980,-7.52,-3.23,-7.45,R
,1765901,47,0,1840,-0.077,0.086,0.980,-8.64,-2.13,-7.42,R
,1765911,28,0,1841,-0.071,0.087,0.981,-10.11,-1.64,-8.20,R
,1765921,21,0,1847,-0.068,0.082,0.966,-13.24,-0.80,-9.28,R
,1765931,24,0,1850,-0.074,0.082,0.953,-16.87,0.55,-9.41,R
,1765941,22,0,1847,-0.078,0.085,0.975,-19.01,1.34,-9.90,R
,1765951,21,0,1850,-0.078,0.077,0.990,-21.38,1.16,-10.58,R
,1765961,43,0,1843,-0.081,0.073,0.989,-23.03,1.55,-12.19,R
,1765971,18,0,1843,-0.094,0.064,0.993,-25.15,1.97,-12.74,R
,1765981,22,0,1846,-0.103,0.065,1.017,-25.15,2.85,-12.57,R
,1765991,49,0,1851,-0.107,0.059,1.023,-24.17,2.99,-12.40,R
,1766001,53,0,1846,-0.112,0.059,1.033,-22.78,3.37,-12.54,R
,1766011,52,0,1842,-0.113,0.056,1.036,-20.69,4.19,-12.87,R
,1766021,51,0,1844,-0.121,0.059,1.044,-18.54,5.55,-12.93,R
,1766031,53,0,1846,-0.133,0.063,1.060,-15.88,7.77,-11.74,R
,1766041,53,0,1847,-0.139,0.062,1.055,-12.45,9.57,-10.92,R
,1766051,70,0,1847,-0.146,0.066,1.040,-9.81,12.67,-9.93,R
,1766061,57,0,1846,-0.161,0.076,1.043,-9.06,14.70,-8.28,R
,1766071,64,0,1843,-0.178,0.079,1.043,-8.60,15.45,-7.12,R
,1766081,62,0,1841,-0.182,0.089,1.044,-9.93,15.29,-5.24,R
,1766091,58,0,1841,-0.198,0.094,1.034,-12.00,14.22,-3.24,R
,1766101,63,0,1842,-0.201,0.091,1.045,-14.42,11.61,-2.11,R
,1766111,64,0,1840,-0.206,0.094,1.049,-16.43,9.72,-1.19,R
,1766121,49,0,1840,-0.204,0.077,1.031,-18.45,5.80,-1.24,R
,1766131,69,0,1842,-0.171,0.076,1.028,-20.14,0.16,-0.49,R
,1766141,67,0,1842,-0.203,0.059,1.056,-16.60,-3.33,-0.55,R
,1766151,64,0,1843,-0.180,0.055,1.061,-12.98,-8.32,-0.28,R
,1766161,64,0,1844,-0.159,0.053,1.050,-8.64,-9.93,0.09,R
,1766171,63,0,1845,-0.146,0.056,1.036,-6.66,-9.94,1.23,R
,1766181,63,0,1846,-0.126,0.073,1.014,-5.27,-9.65,2.13,R
,1766191,63,0,1843,-0.120,0.070,1.039,-6.77,-9.29,4.27,R
,1766201,63,0,1840,-0.116,0.078,1.010,-8.10,-9.94,5.80,R
,1766211,64,0,1851,-0.123,0.078,1.003,-9.22,-10.72,8.55,R
,1766221,64,0,1849,-0.120,0.064,1.029,-10.80,-13.56,10.50,R
,1766231,64,0,1847,-0.120,0.056,1.036,-10.34,-16.54,12.62,R
,1766241,63,0,1843,-0.109,0.059,1.048,-7.73,-17.53,13.83,R
,1766251,64,0,1841,-0.111,0.066,1.064,-3.52,-21.21,13.01,R
,1766261,70,0,1842,-0.100,0.062,1.053,-1.74,-25.12,10.53,R
,1766271,64,0,1842,-0.092,0.062,1.028,-3.24,-27.59,7.49,R
,1766281,66,0,1850,-0.095,0.063,1.025,-3.36,-28.34,4.36,R
,1766291,57,0,1847,-0.101,0.019,1.029,-4.68,-28.17,2.07,R
,1766301,62,0,1843,-0.088,0.035,1.004,-9.81,-28.75,2.27,R
,1766311,63,0,1850,-0.095,0.053,1.005,-13.19,-28.31,5.14,R
,1766321,64,0,1849,-0.093,0.048,1.013,-13.96,-27.78,6.27,R
,1766331,57,0,1849,-0.093,0.042,0.995,-15.01,-26.03,7.86,R
,1766341,71,0,1843,-0.091,0.055,1.003,-15.76,-23.74,9.40,R
,1766351,70,0,1841,-0.085,0.050,1.012,-17.12,-21.76,10.18,R
,1766361,78,0,1846,-0.072,0.038,1.005,-20.14,-19.15,10.04,R
,1766371,65,0,1840,-0.073,0.024,1.007,-22.00,-16.94,9.59,R
,1766381,63,0,1843,-0.069,0.020,1.007,-21.77,-14.83,9.08,R
,1766391,64,0,1844,-0.071,0.015,0.997,-22.39,-13.62,9.45,R
,1766401,64,0,1851,-0.068,0.015,1.014,-20.93,-13.03,9.91,R
,1766411,65,0,1847,-0.058,-0.001,1.011,-19.90,-14.10,8.56,R
,1766421,64,0,1845,-0.044,-0.005,1.015,-19.29,-14.65,7.55,R
,1766431,64,0,1846,-0.033,-0.009,1.015,-19.44,-14.68,6.64,R
,1766441,69,0,1842,-0.041,-0.016,1.013,-18.35,-16.58,5.46,R
,1766451,66,0,1847,-0.019,-0.027,1.032,-16.93,-18.81,3.01,R
,1766461,66,0,1846,-0.016,0.006,1.048,-16.97,-19.50,3.60,R
,1766471,64,0,1843,-0.025,0.013,1.008,-20.10,-19.35,3.34,R
,1766481,63,0,1846,-0.028,0.031,1.007,-23.74,-20.57,4.29,R
,1766491,66,0,1847,-0.036,0.056,1.013,-24.75,-20.75,4.96,R
,1766501,64,0,1846,-0.028,0.046,0.999,-27.15,-20.55,5.22,R
,1766511,65,0,1844,-0.021,0.030,0.998,-32.52,-19.09,5.86,R
,1766521,64,0,1841,-0.023,0.007,0.985,-38.43,-18.34,7.86,R
,1766531,66,0,1847,-0.048,-0.006,1.011,-38.16,-18.25,10.35,R
,1766541,66,0,1847,-0.036,-0.016,1.026,-34.34,-18.10,11.75,R
,1766551,77,0,1848,-0.040,-0.057,1.034,-34.10,-17.27,10.68,R
,1766561,65,0,1851,-0.043,-0.037,1.047,-31.96,-13.30,13.02,R
,1766571,66,0,1847,-0.064,-0.016,1.031,-29.93,-8.63,15.80,R
,1766581,77,0,1847,-0.049,-0.013,1.024,-30.92,-8.48,15.91,R
,1766591,67,0,1846,-0.055,-0.013,1.016,-34.02,-10.97,15.17,R
,1766601,33,0,1850,-0.077,-0.021,1.023,-35.15,-14.17,14.26,R
,1766611,82,0,1847,-0.055,-0.032,1.030,-33.97,-19.16,12.88,R
,1766621,80,0,1845,-0.052,-0.048,1.016,-34.89,-21.13,11.49,R
,1766631,78,0,1847,-0.049,-0.050,1.013,-36.87,-24.11,9.33,R
,1766641,80,0,1845,-0.052,-0.052,1.015,-37.61,-25.16,8.97,R
,1766651,76,0,1845,-0.040,-0.055,1.033,-38.75,-26.19,8.46,R
,1766661,78,0,1843,-0.031,-0.082,1.037,-39.82,-26.83,7.05,R
,1766671,71,0,1843,-0.020,-0.113,1.056,-36.31,-27.93,4.72,R
,1766681,76,0,1840,0.006,-0.140,1.069,-28.31,-27.04,2.12,R
,1766691,76,0,1841,0.031,-0.146,1.063,-19.50,-22.29,-0.29,R
,1766701,71,0,1842,0.044,-0.141,1.057,-13.35,-15.13,-1.51,R
,1766711,80,0,1842,0.043,-0.123,1.037,-12.28,-9.00,-1.93,R
,1766721,65,0,1843,0.030,-0.110,1.036,-12.03,-6.26,-1.77,R
,1766731,68,0,1842,0.022,-0.109,1.029,-12.51,-6.86,-2.17,R
,1766741,70,0,1840,0.016,-0.101,1.028,-15.77,-9.50,-2.66,R
,1766751,74,0,1843,0.008,-0.095,1.018,-15.21,-12.46,-3.35,R
,1766761,63,0,1843,0.018,-0.090,1.021,-16.51,-14.28,-3.03,R
,1766771,74,0,1841,0.015,-0.081,1.023,-19.48,-14.00,-2.09,R
,1766781,69,0,1840,0.018,-0.075,1.016,-21.03,-13.81,-0.72,R
,1766791,71,0,1841,0.025,-0.088,1.023,-21.77,-15.12,-0.90,R
,1766801,69,0,1840,0.038,-0.091,1.036,-19.87,-17.24,-1.91,R
,1766811,66,0,1845,0.056,-0.096,1.018,-18.93,-18.11,-3.54,R
,1766821,68,0,1843,0.057,-0.098,1.011,-19.35,-15.18,-3.59,R
,1766831,68,0,1841,0.061,-0.105,1.031,-15.35,-12.87,-4.32,R
,1766841,67,0,1842,0.071,-0.117,0.993,-15.12,-11.29,-5.30,R
,1766851,65,0,1841,0.047,-0.111,0.991,-16.02,-7.78,-3.99,R
,1766861,64,0,1842,0.051,-0.136,1.027,-15.47,-7.73,-2.60,R
,1766871,46,0,1838,0.052,-0.092,0.972,-15.85,-7.76,-3.03,R
,1766881,0,0,1840,0.071,-0.107,0.928,-14.61,-6.78,-5.07,R
,1766891,101,0,1840,0.083,-0.123,0.956,-13.35,-8.39,-9.94,R
,1766901,134,0,1841,0.074,-0.130,0.970,-9.01,-6.17,-11.91,R
,1766911,330,0,1840,0.086,-0.137,0.951,-5.74,-0.10,-12.31,R
,1766921,467,0,1844,0.078,-0.115,0.946,-7.39,4.51,-11.54,R
,1766931,443,0,1841,0.051,-0.115,0.946,-6.97,6.77,-10.54,R
,1766941,487,0,1840,0.051,-0.119,0.962,-7.32,7.80,-11.33,R
,1766951,325,0,1851,0.045,-0.134,0.970,-7.06,7.20,-12.54,R
,1766961,566,0,1850,0.027,-0.112,0.982,-6.02,7.86,-12.54,R
,1766971,622,0,1844,0.027,-0.122,0.989,-5.71,8.12,-13.44,R
,1766981,684,0,1847,0.024,-0.124,1.006,-2.83,8.24,-15.27,R
,1766991,736,0,1847,0.024,-0.135,1.024,1.49,10.44,-16.51,R
,1767001,707,0,1853,0.020,-0.115,1.021,2.16,12.29,-15.38,R
,1767011,686,0,1847,0.018,-0.098,1.025,4.04,13.57,-16.48,R
,1767021,603,0,1841,0.017,-0.091,1.022,6.41,13.61,-19.62,R
,1767031,692,0,1847,0.005,-0.094,1.007,6.09,14.12,-19.93,R
,1767041,716,0,1846,0.002,-0.093,1.003,5.98,17.05,-17.79,R
,1767051,737,0,1845,0.026,-0.103,1.037,9.49,19.14,-19.06,R
,1767061,809,0,1849,0.036,-0.123,1.051,15.31,25.26,-20.46,R
,1767071,803,0,1843,0.072,-0.192,1.060,28.33,33.16,-25.22,R
,1767081,746,0,1842,0.073,-0.195,1.030,36.36,47.13,-24.58,R
,1767091,511,0,1843,0.014,-0.153,0.990,46.45,65.40,-17.06,R
,1767101,510,0,1840,-0.057,-0.080,1.027,46.03,73.54,-9.15,R
,1767111,483,0,1840,-0.080,-0.043,1.056,37.10,63.60,-5.56,R
,1767121,453,0,1839,-0.131,-0.003,1.039,22.79,49.34,-1.64,R
,1767131,368,0,1840,-0.133,0.000,1.086,7.57,28.90,-5.35,R
,1767141,373,0,1843,-0.113,-0.003,1.100,-5.45,6.93,-8.05,R
,1767151,279,0,1846,-0.100,-0.032,1.109,-13.21,-8.81,-14.66,R
,1767161,343,0,1849,-0.105,-0.046,1.144,-13.07,-15.58,-13.18,R
,1767171,400,0,1843,-0.163,-0.168,1.208,13.14,11.61,-12.77,R
,1767181,233,0,1842,-0.035,-0.071,1.149,9.02,-12.36,-8.70,R
,1767191,218,0,1846,-0.021,-0.037,1.018,16.44,-1.97,-5.01,R
,1767201,208,0,1842,-0.022,-0.035,0.997,8.68,0.88,-7.79,R
,1767211,389,0,1848,-0.099,-0.026,1.043,8.03,6.48,-5.93,R
,1767221,419,0,1845,-0.040,-0.049,1.028,2.68,-5.59,-9.56,R
,1767231,487,0,1851,-0.033,-0.031,0.984,-5.13,-5.04,-13.32,R
,1767241,498,0,1841,-0.065,-0.016,1.034,-10.23,-6.10,-11.24,R
,1767251,505,0,1847,-0.061,-0.023,1.048,-10.58,-8.81,-10.32,R
,1767261,528,0,1853,-0.021,-0.031,1.053,-10.43,-7.24,-10.25,R
,1767271,539,0,1845,-0.008,-0.064,1.056,-11.27,-2.87,-10.57,R
,1767281,558,0,1841,-0.007,-0.059,1.066,-11.58,-0.05,-11.06,R
,1767291,578,0,1846,-0.016,-0.078,1.060,-10.89,2.97,-12.05,R
,1767301,586,0,1843,-0.014,-0.072,1.043,-13.84,2.96,-11.83,R
,1767311,592,0,1841,-0.000,-0.101,1.031,-9.47,2.70,-14.67,R
,1767321,656,0,1843,-0.010,-0.114,1.019,-8.37,4.51,-17.30,R
,1767331,737,0,1845,-0.019,-0.117,1.000,-4.98,5.57,-20.48,R
,1767341,738,0,1845,-0.026,-0.105,1.000,0.93,8.39,-22.09,R
,1767351,763,0,1843,-0.016,-0.097,1.011,8.32,16.84,-26.58,R
,1767361,770,0,1840,-0.022,-0.044,1.033,16.10,29.39,-33.16,R
,1767371,837,0,1841,-0.110,0.027,0.988,20.65,47.19,-30.75,R
,1767381,858,0,1845,-0.137,0.048,1.062,26.97,55.55,-30.74,R
,1767391,866,0,1846,-0.161,0.085,1.112,26.44,57.87,-28.57,R
,1767401,869,0,1840,-0.211,0.083,1.058,15.39,54.15,-28.20,R
,1767411,909,0,1841,-0.237,0.067,1.061,3.16,42.50,-21.39,R
,1767421,910,0,1843,-0.228,0.054,1.033,-9.09,23.05,-16.54,R
,1767431,919,0,1841,-0.176,0.011,1.011,-22.28,2.65,-17.45,R
,1767441,927,0,1845,-0.106,-0.065,1.004,-24.63,-11.52,-23.59,R
,1767451,923,0,1840,-0.079,-0.049,0.982,-25.94,-15.15,-25.12,R
,1767461,1022,0,1843,-0.095,-0.039,0.981,-23.21,-9.78,-21.68,R
,1767471,1071,0,1843,-0.053,-0.074,1.027,-14.00,-5.50,-18.70,R
,1767481,1140,0,1843,-0.066,-0.012,1.006,-6.71,0.32,-21.33,R
,1767491,1238,0,1843,-0.050,-0.058,1.004,-3.67,7.54,-20.32,R
,1767501,1290,0,1842,-0.073,-0.060,1.034,-4.49,7.02,-21.77,R
,1767511,1466,0,1841,-0.081,-0.101,1.035,-4.46,6.15,-24.05,R
,1767521,1583,0,1842,-0.045,-0.095,1.068,-0.60,3.45,-28.29,R
,1767531,1681,0,1842,-0.022,-0.165,1.137,-2.23,2.93,-26.84,R
,1767541,1830,0,1842,-0.044,-0.145,1.113,-1.96,6.29,-22.34,R
,1767551,1937,0,1849,-0.047,-0.132,1.041,-1.61,6.79,-17.68,R
,1767561,1959,0,1846,-0.087,-0.102,0.983,-3.09,4.35,-13.42,R
,1767571,2026,0,1846,-0.083,-0.079,0.999,-5.00,-2.46,-12.03,R
,1767581,2063,0,1842,-0.094,-0.060,1.000,-8.66,-5.58,-11.88,R
,1767591,2097,0,1840,-0.111,-0.001,1.004,-10.54,-5.04,-11.56,R
,1767601,2121,0,1847,-0.130,0.013,1.048,-8.64,-2.66,-12.35,R
,1767611,2163,0,1850,-0.115,0.002,1.042,-9.33,-3.44,-11.27,R
,1767621,2177,0,1846,-0.087,-0.012,1.054,-11.24,-5.79,-12.48,R
,1767631,2249,0,1847,-0.062,-0.075,1.046,-9.77,-10.28,-13.62,R
,1767641,2291,0,1846,-0.067,-0.091,1.046,-3.53,-11.29,-11.85,R
,1767651,2315,0,1849,-0.063,-0.063,0.999,-2.22,-8.39,-10.90,R
,1767661,2381,0,1843,-0.062,-0.061,0.976,-4.48,-7.93,-9.87,R
,1767671,2390,0,1847,-0.067,-0.057,0.966,-4.74,-10.03,-10.26,R
,1767681,2397,0,1845,-0.066,-0.075,0.996,-6.05,-11.82,-8.45,R
,1767691,2387,0,1843,-0.062,-0.057,1.015,-7.77,-10.60,-7.21,R
,1767701,2441,0,1845,-0.059,-0.015,1.027,-7.85,-6.61,-5.83,R
,1767711,2442,0,1844,-0.077,-0.006,1.060,-8.29,-3.04,-3.53,R
,1767721,2496,0,1840,-0.048,-0.009,1.054,-10.14,-3.06,-6.45,R
,1767731,2495,0,1842,-0.112,0.029,1.045,-11.39,-2.63,-6.74,R
,1767741,2464,0,1841,-0.112,0.011,1.010,-11.04,-5.15,-9.06,R
,1767751,2531,0,1842,-0.109,-0.006,1.027,-11.67,-8.63,-12.83,R
,1767761,2526,0,1847,-0.103,-0.059,1.009,-11.27,-9.10,-12.28,R
,1767771,2527,0,1843,-0.066,-0.085,1.018,-8.23,-8.11,-11.30,R
,1767781,2532,0,1843,-0.063,-0.100,1.017,-5.32,-5.01,-8.96,R
,1767791,2544,0,1842,-0.060,-0.089,1.019,-5.58,-1.13,-5.35,R
,1767801,2543,0,1843,-0.080,-0.068,0.998,-7.19,0.06,-2.23,R
,1767811,2547,0,1844,-0.094,-0.077,0.998,-10.05,-2.71,-0.12,R
,1767821,2559,0,1843,-0.100,-0.082,1.013,-14.39,-7.99,0.27,R
,1767831,2536,0,1855,-0.079,-0.078,1.028,-14.72,-12.34,-4.02,R
,1767841,2533,0,1846,-0.106,-0.035,1.031,-16.10,-9.64,-5.48,R
,1767851,2531,0,1847,-0.109,-0.038,1.067,-13.45,-5.96,-4.40,R
,1767861,2543,0,1841,-0.103,-0.026,1.024,-17.64,-4.97,-5.97,R
,1767871,2531,0,1842,-0.067,-0.045,1.055,-16.14,-2.80,-7.16,R
,1767881,2531,0,1846,-0.063,-0.066,1.078,-12.52,0.39,-9.61,R
,1767891,2527,0,1849,-0.061,-0.078,1.050,-8.93,5.86,-9.15,R
,1767901,2526,0,1847,-0.066,-0.077,1.036,-8.32,9.05,-6.16,R
,1767911,2544,0,1845,-0.102,-0.076,1.003,-9.93,7.71,-2.75,R
,1767921,2547,0,1842,-0.105,-0.093,0.986,-11.21,1.66,-0.60,R
,1767931,2558,0,1847,-0.111,-0.091,0.958,-13.44,-4.63,-0.69,R
,1767941,2559,0,1846,-0.127,-0.078,0.988,-16.92,-7.41,0.53,R
,1767951,2517,0,1849,-0.119,-0.041,1.018,-23.32,-11.50,-0.14,R
,1767961,2528,0,1840,-0.117,-0.041,1.043,-27.74,-15.56,-2.19,R
,1767971,2522,0,1845,-0.080,-0.035,1.102,-24.78,-15.32,-3.33,R
,1767981,2506,0,1844,-0.060,-0.042,1.119,-20.31,-8.84,-4.12,R
,1767991,2487,0,1849,-0.053,-0.054,1.083,-15.29,-0.58,-4.78,R
,1768001,2489,0,1846,-0.053,-0.089,1.048,-14.98,5.71,-4.83,R
,1768011,2475,0,1847,-0.055,-0.123,0.994,-11.38,5.57,-5.88,R
,1768021,2493,0,1847,-0.059,-0.133,0.955,-9.03,6.62,-5.44,R
,1768031,2487,0,1845,-0.082,-0.134,0.946,-7.73,5.05,-5.03,R
,1768041,2485,0,1843,-0.095,-0.126,0.933,-2.48,1.84,-5.21,R
,1768051,2486,0,1843,-0.101,-0.108,0.979,-2.71,-2.28,-5.03,R
,1768061,2463,0,1845,-0.103,-0.102,0.997,-3.58,-5.07,-3.73,R
,1768071,2465,0,1842,-0.056,-0.123,1.041,-1.73,-5.27,-5.42,R
,1768081,2467,0,1843,-0.077,-0.122,1.035,-0.29,-2.94,-6.77,R
,1768091,2478,0,1843,-0.078,-0.115,1.063,-1.48,0.13,-5.33,R
,1768101,2478,0,1841,-0.049,-0.097,1.061,2.45,4.10,-8.29,R
,1768111,2479,0,1845,-0.086,-0.081,1.079,0.30,7.63,-7.44,R
,1768121,2487,0,1841,-0.104,-0.058,1.064,-2.80,6.67,-6.28,R
,1768131,2489,0,1840,-0.097,-0.062,1.052,-2.93,4.79,-6.49,R
,1768141,2491,0,1842,-0.108,-0.069,1.026,-4.93,1.98,-7.07,R
,1768151,2487,0,1841,-0.107,-0.070,0.992,-4.54,-1.01,-6.87,R
,1768161,2494,0,1841,-0.115,-0.048,0.968,-5.24,-1.90,-5.96,R
,1768171,2494,0,1841,-0.107,-0.062,0.969,-4.69,-5.03,-5.83,R
,1768181,2483,0,1842,-0.109,-0.060,0.982,-5.67,-8.25,-6.54,R
,1768191,2475,0,1844,-0.118,-0.054,0.988,-5.99,-9.16,-6.16,R
,1768201,2480,0,1845,-0.102,-0.046,1.030,-5.76,-9.21,-5.24,R
,1768211,2476,0,1845,-0.061,-0.070,1.049,-5.96,-8.95,-7.97,R
,1768221,2469,0,1842,-0.061,-0.081,1.048,-6.45,-7.68,-8.46,R
,1768231,2435,0,1841,-0.053,-0.083,1.053,-4.69,-5.07,-7.76,R
,1768241,2483,0,1845,-0.058,-0.070,1.062,-3.58,-1.82,-6.95,R
,1768251,2480,0,1847,-0.056,-0.084,1.051,-4.20,-1.12,-7.18,R
,1768261,2495,0,1843,-0.077,-0.071,1.022,-5.16,-1.01,-6.86,R
,1768271,2479,0,1842,-0.082,-0.064,1.025,-3.84,-1.06,-5.45,R
,1768281,2468,0,1840,-0.072,-0.067,1.014,-4.05,-0.65,-5.16,R
,1768291,2471,0,1851,-0.094,-0.066,1.006,-5.27,-1.35,-4.78,R
,1768301,2466,0,1841,-0.104,-0.077,0.980,-5.79,-5.04,-5.01,R
,1768311,2478,0,1846,-0.095,-0.078,1.000,-4.66,-7.62,-5.77,R
,1768321,2475,0,1841,-0.079,-0.086,1.009,-3.67,-8.72,-7.45,R
,1768331,2458,0,1841,-0.077,-0.091,1.019,1.98,-8.55,-9.64,R
,1768341,2453,0,1847,-0.072,-0.078,1.044,7.29,-7.87,-9.99,R
,1768351,2443,0,1853,-0.060,-0.071,1.028,11.46,-6.57,-11.03,R
,1768361,2448,0,1850,-0.059,-0.096,1.048,13.45,-4.77,-11.82,R
,1768371,2432,0,1844,-0.037,-0.098,1.055,12.35,-3.06,-12.16,R
,1768381,2445,0,1841,-0.068,-0.066,1.057,8.88,-0.54,-10.00,R
,1768391,2448,0,1847,-0.059,-0.076,1.030,8.38,-0.75,-9.19,R
,1768401,2447,0,1850,-0.083,-0.057,1.027,3.37,0.33,-7.50,R
,1768411,2473,0,1849,-0.103,-0.044,1.030,0.71,1.46,-6.77,R
,1768421,2469,0,1845,-0.111,-0.039,1.017,-2.35,0.68,-5.70,R
,1768431,2470,0,1846,-0.134,-0.031,1.020,-4.89,-1.24,-4.41,R
,1768441,2476,0,1841,-0.103,-0.052,1.005,-4.64,-4.57,-5.56,R
,1768451,2470,0,1845,-0.102,-0.051,1.017,-5.32,-5.04,-6.31,R
,1768461,2485,0,1841,-0.069,-0.064,1.045,-2.80,-4.52,-7.73,R
,1768471,2487,0,1846,-0.061,-0.072,1.032,-1.52,-1.21,-7.16,R
,1768481,2481,0,1847,-0.054,-0.066,1.034,0.12,1.14,-6.83,R
,1768491,2481,0,1842,-0.062,-0.061,0.997,0.55,2.36,-7.61,R
,1768501,2501,0,1840,-0.076,-0.043,1.031,-0.25,2.61,-6.66,R
,1768511,2478,0,1840,-0.069,-0.042,1.042,-0.08,0.93,-7.53,R
,1768521,2494,0,1840,-0.077,-0.034,1.007,-2.58,1.74,-6.80,R
,1768531,2497,0,1840,-0.085,-0.038,1.023,-3.61,0.76,-6.74,R
,1768541,2484,0,1840,-0.096,-0.033,0.997,-5.36,0.44,-6.75,R
,1768551,2501,0,1840,-0.128,-0.024,0.982,-6.71,0.32,-4.93,R
,1768561,2483,0,1840,-0.113,-0.033,0.990,-8.81,-1.32,-4.23,R
,1768571,2462,0,1841,-0.114,-0.039,0.981,-11.81,-1.97,-4.23,R
,1768581,2461,0,1840,-0.104,-0.036,0.995,-11.94,-3.55,-3.16,R
,1768591,2464,0,1840,-0.080,-0.036,1.022,-11.44,-3.96,-2.74,R
,1768601,2465,0,1840,-0.063,-0.037,1.007,-12.03,-5.06,-2.92,R
,1768611,2465,0,1838,-0.053,-0.060,1.032,-11.85,-4.77,-3.41,R
,1768621,2469,0,1839,-0.037,-0.080,1.064,-9.90,-4.51,-4.26,R
,1768631,2475,0,1842,-0.054,-0.069,1.072,-10.25,-1.41,-2.52,R
,1768641,2475,0,1841,-0.061,-0.077,1.076,-8.22,-0.37,-2.57,R
,1768651,2478,0,1841,-0.069,-0.048,1.049,-8.08,-0.66,-3.39,R
,1768661,2480,0,1840,-0.077,-0.051,1.041,-8.64,0.27,-3.48,R
,1768671,2480,0,1845,-0.083,-0.041,1.051,-9.47,2.74,-2.22,R
,1768681,2477,0,1842,-0.081,-0.050,1.040,-8.87,4.29,-1.32,R
,1768691,2470,0,1847,-0.091,-0.055,1.011,-9.06,3.40,-0.49,R
,1768701,2464,0,1843,-0.079,-0.052,0.998,-12.13,0.68,-0.87,R
,1768711,2463,0,1847,-0.101,-0.053,1.003,-11.09,-1.67,-1.22,R
,1768721,2471,0,1840,-0.104,-0.042,0.995,-12.08,-1.53,0.09,R
,1768731,2443,0,1843,-0.081,-0.050,1.016,-11.88,-1.16,-0.64,R
,1768741,2449,0,1843,-0.082,-0.046,1.028,-10.00,-2.08,-2.61,R
,1768751,2449,0,1840,-0.082,-0.056,1.038,-9.42,-1.16,-3.64,R
,1768761,2463,0,1840,-0.054,-0.092,1.039,-6.40,-1.70,-6.38,R
,1768771,2479,0,1842,-0.070,-0.088,1.032,-5.19,0.48,-6.32,R
,1768781,2467,0,1840,-0.069,-0.095,1.025,-2.71,0.87,-6.69,R
,1768791,2479,0,1843,-0.073,-0.094,1.021,-2.03,2.03,-6.00,R
,1768801,2448,0,1841,-0.087,-0.088,1.032,-2.84,2.19,-4.51,R
,1768811,2461,0,1844,-0.100,-0.060,1.029,-2.66,1.55,-3.13,R
,1768821,2448,0,1846,-0.095,-0.064,1.030,-2.32,-0.10,-4.14,R
,1768831,2479,0,1845,-0.092,-0.046,1.009,-2.25,-0.20,-5.16,R
,1768841,2463,0,1846,-0.101,-0.034,1.005,-7.55,0.71,-4.29,R
,1768851,2444,0,1847,-0.107,-0.038,1.021,-5.87,0.22,-3.91,R
,1768861,2433,0,1841,-0.036,-0.090,1.041,-0.95,-3.24,-9.15,R
,1768871,2443,0,1846,-0.143,-0.009,0.970,-12.42,-0.91,-3.91,R
,1768881,2433,0,1847,-0.047,-0.076,1.029,-2.29,-6.00,-7.19,R
,1768891,2432,0,1846,-0.053,-0.082,1.019,-4.60,-2.63,-9.80,R
,1768901,2431,0,1843,-0.048,-0.088,1.030,0.09,-0.89,-9.54,R
,1768911,2437,0,1842,-0.072,-0.065,1.029,0.79,3.87,-6.96,R
,1768921,2432,0,1845,-0.086,-0.056,1.043,2.35,5.02,-5.07,R
,1768931,2425,0,1846,-0.104,-0.034,1.022,-1.33,4.51,-4.99,R
,1768941,2416,0,1845,-0.131,-0.027,1.039,-2.93,1.68,-5.28,R
,1768951,2409,0,1840,-0.123,-0.027,1.045,-4.31,-0.71,-5.68,R
,1768961,2407,0,1845,-0.113,-0.031,1.013,-4.98,-1.53,-6.78,R
,1768971,2402,0,1844,-0.106,-0.053,1.019,-5.82,-2.17,-6.41,R
,1768981,2395,0,1843,-0.099,-0.052,0.996,-7.19,-2.19,-5.76,R
,1768991,2384,0,1850,-0.074,-0.067,1.016,-4.63,-1.79,-5.50,R
,1769001,2384,0,1845,-0.080,-0.048,1.005,-5.33,-2.23,-4.45,R
,1769011,2386,0,1848,-0.072,-0.069,1.037,-3.99,-3.65,-4.08,R
,1769021,2397,0,1849,-0.062,-0.072,1.028,-5.81,-5.01,-5.27,R
,1769031,2384,0,1845,-0.087,-0.052,0.993,-7.06,-8.14,-3.97,R
,1769041,2385,0,1847,-0.027,-0.061,0.981,-5.62,-10.91,-8.02,R
,1769051,2375,0,1847,-0.048,-0.069,1.044,-4.93,-7.97,-8.75,R
,1769061,2399,0,1846,-0.033,-0.071,1.017,-3.64,-2.10,-8.41,R
,1769071,2384,0,1850,-0.046,-0.070,1.050,-1.13,2.06,-9.50,R
,1769081,2384,0,1846,-0.068,-0.066,1.068,2.35,5.16,-9.42,R
,1769091,2384,0,1850,-0.082,-0.050,1.044,2.33,7.29,-9.79,R
,1769101,2384,0,1845,-0.109,-0.039,1.051,1.08,7.46,-9.88,R
,1769111,2366,0,1846,-0.091,-0.064,1.043,0.84,7.20,-10.96,R
,1769121,2362,0,1846,-0.118,-0.059,1.023,0.06,7.14,-10.63,R
,1769131,2367,0,1842,-0.113,-0.070,1.005,2.15,6.32,-9.53,R
,1769141,2370,0,1847,-0.110,-0.065,0.990,2.35,5.42,-9.62,R
,1769151,2375,0,1843,-0.130,-0.041,0.989,2.53,3.32,-8.45,R
,1769161,2378,0,1845,-0.130,-0.022,1.012,2.99,0.06,-7.62,R
,1769171,2371,0,1846,-0.128,-0.008,1.003,-0.03,-0.43,-7.07,R
,1769181,2379,0,1851,-0.131,-0.007,1.049,-2.31,-0.16,-6.31,R
,1769191,2383,0,1849,-0.123,-0.004,1.040,-4.75,1.64,-4.75,R
,1769201,2384,0,1851,-0.124,-0.015,1.024,-5.99,2.44,-4.25,R
,1769211,2378,0,1849,-0.129,-0.021,0.998,-8.03,1.77,-3.22,R
,1769221,2381,0,1843,-0.138,-0.026,0.982,-10.03,0.41,-2.29,R
,1769231,2384,0,1847,-0.144,-0.036,1.003,-10.86,-1.97,-1.45,R
,1769241,2380,0,1844,-0.145,-0.029,1.018,-10.66,-4.77,-0.38,R
,1769251,2384,0,1851,-0.119,-0.042,1.018,-10.71,-6.65,-0.66,R
,1769261,2387,0,1845,-0.091,-0.059,1.008,-10.14,-6.49,-2.40,R
,1769271,2385,0,1847,-0.106,-0.051,1.015,-10.08,-3.36,-0.75,R
,1769281,2398,0,1853,-0.095,-0.045,1.015,-7.96,-1.94,0.07,R
,1769291,2389,0,1850,-0.086,-0.027,1.022,-9.45,-0.60,-0.25,R
,1769301,2407,0,1845,-0.091,-0.037,1.031,-10.05,-0.54,-0.32,R
,1769311,2417,0,1849,-0.101,-0.038,1.040,-12.26,-1.27,-0.67,R
,1769321,2409,0,1851,-0.091,-0.041,1.049,-9.21,-2.57,-1.77,R
,1769331,2442,0,1849,-0.093,-0.040,1.035,-11.45,-1.32,-1.67,R
,1769341,2415,0,1846,-0.071,-0.055,1.014,-10.34,-1.49,-3.15,R
,1769351,2418,0,1847,-0.083,-0.061,1.021,-10.43,-0.32,-2.78,R
,1769361,2426,0,1849,-0.091,-0.062,1.012,-8.78,1.17,-1.13,R
,1769371,2399,0,1847,-0.092,-0.058,1.010,-8.72,1.31,-1.03,R
,1769381,2430,0,1850,-0.107,-0.060,1.007,-11.38,-0.57,-0.81,R
,1769391,2434,0,1845,-0.107,-0.053,1.017,-11.79,-3.30,-0.90,R
,1769401,2441,0,1847,-0.111,-0.037,1.043,-12.17,-4.63,-0.60,R
,1769411,2443,0,1851,-0.083,-0.044,1.017,-11.45,-5.64,-2.99,R
,1769421,2441,0,1852,-0.099,-0.062,1.015,-10.32,-5.84,-4.81,R
,1769431,2438,0,1854,-0.091,-0.074,1.015,-5.88,-5.74,-5.82,R
,1769441,2448,0,1846,-0.073,-0.069,1.033,-2.89,-3.50,-6.19,R
,1769451,2449,0,1842,-0.075,-0.066,1.026,-5.12,0.67,-6.19,R
,1769461,2457,0,1845,-0.111,-0.063,1.029,-5.97,0.61,-5.47,R
,1769471,2480,0,1848,-0.099,-0.065,1.063,-5.70,0.88,-5.10,R
,1769481,2484,0,1840,-0.101,-0.028,1.059,-6.06,3.06,-4.54,R
,1769491,2478,0,1844,-0.091,-0.035,1.031,-7.26,3.61,-4.77,R
,1769501,2494,0,1850,-0.094,-0.047,1.013,-8.32,2.51,-5.96,R
,1769511,2499,0,1847,-0.107,-0.069,1.000,-10.02,1.48,-5.21,R
,1769521,2517,0,1846,-0.095,-0.062,0.989,-7.22,2.16,-3.44,R
,1769531,2530,0,1845,-0.114,-0.046,1.020,-9.06,3.75,-2.95,R
,1769541,2528,0,1844,-0.113,-0.049,1.009,-7.50,1.45,-4.09,R
,1769551,2538,0,1849,-0.127,-0.052,1.011,-8.22,-2.46,-4.20,R
,1769561,2549,0,1842,-0.130,-0.044,1.014,-8.06,-5.78,-3.90,R
,1769571,2549,0,1846,-0.114,-0.041,1.047,-7.21,-6.25,-3.42,R
,1769581,2549,0,1851,-0.098,-0.046,1.045,-5.47,-4.57,-3.61,R
,1769591,2559,0,1847,-0.094,-0.073,1.019,-5.76,-4.51,-5.01,R
,1769601,2559,0,1845,-0.083,-0.078,1.017,-4.55,-2.83,-5.91,R
,1769611,2581,0,1843,-0.104,-0.052,1.022,-3.16,-0.80,-5.74,R
,1769621,2559,0,1840,-0.090,-0.057,1.007,-4.02,-1.07,-6.02,R
,1769631,2558,0,1842,-0.110,-0.061,1.009,-6.71,-2.52,-6.57,R
,1769641,2559,0,1838,-0.109,-0.046,1.032,-6.35,-3.30,-6.29,R
,1769651,2559,0,1842,-0.092,-0.051,1.033,-5.65,-2.40,-6.86,R
,1769661,2559,0,1840,-0.096,-0.051,1.033,-5.76,-2.05,-7.41,R
,1769671,2559,0,1841,-0.103,-0.040,1.023,-6.51,-1.20,-5.90,R
,1769681,2559,0,1840,-0.086,-0.056,1.032,-6.13,-0.78,-5.88,R
,1769691,2558,0,1845,-0.091,-0.052,1.048,-6.11,-0.02,-4.83,R
,1769701,2559,0,1843,-0.094,-0.062,1.037,-5.33,0.93,-4.72,R
,1769711,2559,0,1843,-0.109,-0.065,1.016,-6.14,0.12,-4.66,R
,1769721,2559,0,1840,-0.115,-0.059,1.020,-6.35,0.13,-4.48,R
,1769731,2559,0,1842,-0.126,-0.054,1.013,-6.02,-2.13,-4.69,R
,1769741,2559,0,1842,-0.082,-0.065,1.014,-5.27,-2.31,-6.38,R
,1769751,2559,0,1841,-0.109,-0.060,1.021,-4.23,-1.68,-6.55,R
,1769761,2582,0,1847,-0.094,-0.064,1.018,-3.55,-1.47,-6.06,R
,1769771,2593,0,1847,-0.107,-0.043,1.029,-4.32,-0.55,-5.32,R
,1769781,2601,0,1847,-0.097,-0.032,1.042,-5.68,0.96,-4.92,R
,1769791,2605,0,1846,-0.114,-0.031,1.025,-8.23,1.45,-6.16,R
,1769801,2609,0,1840,-0.106,-0.054,1.021,-6.48,0.39,-5.13,R
,1769811,2606,0,1843,-0.092,-0.078,0.996,-6.45,-1.23,-5.73,R
,1769821,2588,0,1840,-0.112,-0.075,0.990,-6.05,-3.90,-5.82,R
,1769831,2589,0,1842,-0.127,-0.050,1.031,-4.84,-4.68,-4.14,R
,1769841,2593,0,1843,-0.096,-0.040,1.041,-4.64,-2.55,-4.89,R
,1769851,2606,0,1843,-0.106,-0.050,1.038,-5.41,0.15,-4.83,R
,1769861,2612,0,1841,-0.103,-0.064,1.023,-4.63,0.33,-4.75,R
,1769871,2603,0,1846,-0.112,-0.053,1.013,-6.90,-0.75,-3.93,R
,1769881,2603,0,1840,-0.090,-0.057,1.032,-5.81,-1.39,-5.28,R
,1769891,2612,0,1840,-0.111,-0.057,1.027,-7.07,0.51,-4.75,R
,1769901,2559,0,1840,-0.085,-0.062,1.012,-5.48,0.21,-4.96,R
,1769911,2622,0,1840,-0.087,-0.084,1.009,-3.77,-2.14,-6.75,R
,1769921,2616,0,1846,-0.101,-0.049,1.002,-5.07,-3.18,-6.35,R
,1769931,2600,0,1843,-0.090,-0.056,1.019,-2.60,-3.78,-6.08,R
,1769941,2610,0,1841,-0.079,-0.053,1.022,-5.07,-0.97,-7.25,R
,1769951,2613,0,1840,-0.089,-0.056,1.061,-1.41,1.58,-6.48,R
,1769961,2616,0,1840,-0.103,-0.037,1.046,-3.13,2.82,-5.48,R
,1769971,2621,0,1843,-0.100,-0.049,1.041,-3.06,1.68,-6.12,R
,1769981,2614,0,1840,-0.119,-0.032,1.026,-6.10,0.87,-5.51,R
,1769991,2617,0,1853,-0.112,-0.060,1.003,-5.22,-1.62,-6.80,R
,1770001,2617,0,1840,-0.131,-0.048,0.985,-5.27,-1.18,-6.08,R
,1770011,2619,0,1841,-0.100,-0.059,1.032,-4.00,0.71,-5.73,R
,1770021,2623,0,1840,-0.121,-0.055,1.012,-3.52,1.80,-5.94,R
,1770031,2615,0,1846,-0.113,-0.062,1.003,-3.50,-0.10,-7.15,R
,1770041,2608,0,1842,-0.121,-0.062,1.019,-3.56,-2.91,-7.10,R
,1770051,2597,0,1841,-0.107,-0.060,1.015,-4.25,-4.36,-7.59,R
,1770061,2595,0,1847,-0.098,-0.059,1.030,-2.66,-3.45,-7.54,R
,1770071,2597,0,1840,-0.098,-0.052,1.032,-2.05,-0.81,-7.42,R
,1770081,2599,0,1841,-0.115,-0.043,1.031,-1.27,0.07,-6.66,R
,1770091,2591,0,1846,-0.112,-0.042,1.027,-2.39,-0.80,-7.12,R
,1770101,2597,0,1846,-0.109,-0.046,1.038,-2.69,-0.92,-7.76,R
,1770111,2586,0,1847,-0.118,-0.044,1.028,-3.09,-0.45,-7.33,R
,1770121,2615,0,1845,-0.116,-0.048,1.011,-2.90,-0.19,-6.99,R
,1770131,2606,0,1850,-0.125,-0.051,1.007,-2.83,0.18,-6.77,R
,1770141,2591,0,1847,-0.134,-0.043,1.011,-3.70,0.91,-5.88,R
,1770151,2559,0,1854,-0.131,-0.034,1.024,-3.39,-0.37,-4.67,R
,1770161,2590,0,1845,-0.122,-0.034,1.019,-4.08,-1.45,-4.74,R
,1770171,2559,0,1851,-0.109,-0.043,1.021,-5.03,-2.87,-5.07,R
,1770181,2614,0,1846,-0.124,-0.048,1.021,-5.90,-3.71,-4.38,R
,1770191,2551,0,1845,-0.102,-0.040,1.012,-5.91,-3.56,-4.95,R
,1770201,2545,0,1841,-0.115,-0.042,1.026,-5.36,-2.83,-4.81,R
,1770211,2551,0,1849,-0.114,-0.032,1.026,-4.97,-1.32,-3.44,R
,1770221,2547,0,1846,-0.102,-0.028,1.036,-4.48,-1.29,-3.45,R
,1770231,2542,0,1843,-0.100,-0.036,1.017,-6.66,-3.16,-5.16,R
,1770241,2531,0,1840,-0.118,-0.034,1.013,-8.10,-5.68,-4.96,R
,1770251,2529,0,1842,-0.099,-0.044,1.011,-6.63,-5.81,-4.69,R
,1770261,2538,0,1840,-0.075,-0.042,1.024,-6.20,-0.22,-4.90,R
,1770271,2533,0,1844,-0.113,-0.039,1.022,-5.13,4.01,-3.35,R
,1770281,2531,0,1843,-0.103,-0.045,1.015,-4.68,2.84,-3.80,R
,1770291,2530,0,1843,-0.118,-0.046,1.015,-5.84,-0.39,-4.74,R
,1770301,2522,0,1836,-0.118,-0.049,1.010,-7.07,-3.58,-4.89,R
,1770311,2513,0,1850,-0.121,-0.058,1.015,-6.42,-7.03,-5.79,R
,1770321,2515,0,1851,-0.106,-0.060,1.043,-5.36,-6.16,-4.43,R
,1770331,2515,0,1845,-0.094,-0.032,1.058,-4.57,-0.69,-4.05,R
,1770341,2522,0,1842,-0.110,-0.019,1.048,-5.35,2.70,-3.48,R
,1770351,2525,0,1846,-0.097,-0.042,1.037,-4.11,2.27,-5.07,R
,1770361,2538,0,1842,-0.106,-0.043,1.030,-4.90,2.61,-5.28,R
,1770371,2541,0,1845,-0.107,-0.056,1.012,-5.16,1.77,-5.09,R
,1770381,2534,0,1847,-0.112,-0.056,0.998,-4.93,0.48,-4.41,R
,1770391,2528,0,1847,-0.111,-0.062,1.008,-4.64,-1.67,-4.48,R
,1770401,2534,0,1841,-0.115,-0.042,1.007,-4.81,-3.76,-4.60,R
,1770411,2523,0,1845,-0.118,-0.035,1.023,-4.40,-3.49,-4.40,R
,1770421,2539,0,1841,-0.119,-0.031,1.038,-3.87,-1.94,-4.51,R
,1770431,2521,0,1844,-0.108,-0.036,1.018,-5.06,-0.68,-5.71,R
,1770441,2516,0,1842,-0.124,-0.036,1.038,-4.28,0.18,-4.98,R
,1770451,2501,0,1843,-0.114,-0.026,1.056,-3.38,2.77,-3.42,R
,1770461,2529,0,1841,-0.089,-0.043,1.031,-3.70,4.99,-4.63,R
,1770471,2526,0,1847,-0.125,-0.034,1.022,-5.39,3.51,-4.49,R
,1770481,2519,0,1845,-0.112,-0.030,1.013,-5.06,0.59,-4.03,R
,1770491,2517,0,1844,-0.108,-0.038,1.016,-4.54,0.15,-4.25,R
,1770501,2517,0,1840,-0.112,-0.040,1.001,-5.06,0.32,-4.81,R
,1770511,2519,0,1842,-0.121,-0.033,0.997,-4.69,-0.02,-5.22,R
,1770521,2519,0,1842,-0.131,-0.040,1.000,-4.54,-0.29,-5.24,R
,1770531,2519,0,1846,-0.132,-0.034,1.025,-3.59,-1.68,-5.06,R
,1770541,2522,0,1840,-0.118,-0.023,1.028,-3.62,-2.25,-5.35,R
,1770551,2525,0,1840,-0.125,-0.020,1.023,-5.33,-2.39,-5.04,R
,1770561,2528,0,1844,-0.109,-0.041,1.025,-5.38,-2.57,-6.46,R
,1770571,2525,0,1845,-0.121,-0.046,1.022,-6.26,-1.79,-6.28,R
,1770581,2525,0,1843,-0.110,-0.047,1.013,-4.61,-0.97,-5.06,R
,1770591,2528,0,1843,-0.113,-0.049,1.019,-4.71,0.97,-4.40,R
,1770601,2522,0,1844,-0.123,-0.046,1.008,-5.39,-0.98,-4.19,R
,1770611,2521,0,1846,-0.130,-0.033,1.008,-6.68,-2.37,-3.96,R
,1770621,2522,0,1842,-0.124,-0.028,1.021,-6.61,-3.56,-3.67,R
,1770631,2521,0,1846,-0.119,-0.023,1.029,-7.30,-3.58,-4.17,R
,1770641,2527,0,1845,-0.110,-0.030,1.020,-6.42,-2.54,-4.99,R
,1770651,2519,0,1846,-0.120,-0.028,1.025,-6.49,-1.32,-4.99,R
,1770661,2519,0,1841,-0.121,-0.031,1.028,-6.58,-1.78,-4.63,R
,1770671,2534,0,1846,-0.123,-0.038,1.020,-6.68,-2.58,-4.99,R
,1770681,2531,0,1840,-0.117,-0.037,1.013,-6.84,-2.89,-4.98,R
,1770691,2526,0,1845,-0.112,-0.051,1.009,-5.56,-2.31,-4.52,R
,1770701,2528,0,1842,-0.125,-0.049,1.021,-5.64,-2.49,-3.97,R
,1770711,2527,0,1841,-0.113,-0.043,1.038,-5.15,-2.78,-4.08,R
,1770721,2531,0,1841,-0.120,-0.025,1.039,-4.57,-3.21,-3.79,R
,1770731,2529,0,1840,-0.105,-0.033,1.029,-6.55,-2.20,-4.16,R
,1770741,2532,0,1845,-0.123,-0.038,1.039,-6.77,-0.16,-3.91,R
,1770751,2534,0,1844,-0.103,-0.037,1.019,-5.27,-0.00,-4.46,R
,1770761,2533,0,1846,-0.115,-0.039,1.014,-6.69,-0.60,-4.81,R
,1770771,2528,0,1841,-0.106,-0.044,0.996,-5.52,-2.36,-6.00,R
,1770781,2530,0,1840,-0.127,-0.046,0.997,-4.72,-4.36,-5.85,R
,1770791,2526,0,1847,-0.151,-0.005,1.015,-5.62,-4.00,-2.34,R
,1770801,2533,0,1840,-0.089,-0.009,1.050,-3.99,-2.05,-3.83,R
,1770811,2536,0,1846,-0.111,-0.011,1.050,-6.02,-0.87,-5.42,R
,1770821,2535,0,1841,-0.109,-0.035,1.020,-7.18,-1.96,-6.41,R
,1770831,2535,0,1844,-0.108,-0.061,0.984,-5.24,-3.16,-6.35,R
,1770841,2512,0,1843,-0.104,-0.074,0.968,-3.38,-3.94,-6.75,R
,1770851,2512,0,1845,-0.133,-0.066,0.960,-3.76,-6.61,-5.71,R
,1770861,2507,0,1844,-0.159,-0.031,0.997,-5.88,-11.84,-2.92,R
,1770871,2521,0,1845,-0.132,0.005,1.073,-5.12,-11.32,-1.19,R
,1770881,2518,0,1843,-0.090,0.030,1.094,-8.34,-4.91,-3.15,R
,1770891,2522,0,1845,-0.086,-0.001,1.093,-7.96,-1.62,-5.47,R
,1770901,2528,0,1843,-0.099,-0.038,1.045,-9.68,-0.20,-5.82,R
,1770911,2531,0,1842,-0.069,-0.068,1.021,-8.80,0.71,-6.06,R
,1770921,2542,0,1843,-0.087,-0.072,1.004,-7.85,2.16,-6.00,R
,1770931,2548,0,1840,-0.099,-0.055,0.978,-6.03,2.55,-5.64,R
,1770941,2541,0,1841,-0.122,-0.045,0.988,-4.23,0.09,-5.56,R
,1770951,2542,0,1847,-0.131,-0.027,1.005,-2.26,-2.81,-5.50,R
,1770961,2531,0,1843,-0.129,-0.013,1.042,-3.56,-3.82,-4.38,R
,1770971,2529,0,1842,-0.109,-0.008,1.046,-5.70,-2.45,-4.17,R
,1770981,2507,0,1843,-0.116,-0.007,1.054,-8.14,0.44,-4.35,R
,1770991,2528,0,1844,-0.115,-0.034,1.028,-9.10,0.36,-4.83,R
,1771001,2527,0,1843,-0.123,-0.047,1.001,-9.41,-0.51,-4.95,R
,1771011,2526,0,1845,-0.118,-0.055,0.994,-8.98,-2.10,-4.83,R
,1771021,2522,0,1851,-0.127,-0.058,1.003,-7.24,-3.71,-5.03,R
,1771031,2519,0,1850,-0.131,-0.033,1.024,-6.08,-3.70,-3.79,R
,1771041,2525,0,1847,-0.103,-0.027,1.043,-5.07,-1.47,-3.87,R
,1771051,2527,0,1843,-0.106,-0.027,1.034,-4.58,-0.60,-4.77,R
,1771061,2521,0,1840,-0.101,-0.057,1.003,-4.77,-1.76,-6.32,R
,1771071,2517,0,1846,-0.120,-0.063,0.974,-5.41,-4.17,-6.61,R
,1771081,2526,0,1849,-0.130,-0.045,1.018,-5.96,-5.96,-3.54,R
,1771091,2528,0,1849,-0.096,-0.020,1.045,-6.37,-2.97,-3.07,R
,1771101,2526,0,1837,-0.102,0.001,1.072,-7.84,-0.11,-4.43,R
,1771111,2530,0,1843,-0.103,-0.028,1.040,-9.12,-0.37,-5.77,R
,1771121,2530,0,1841,-0.110,-0.049,1.021,-7.65,-1.99,-5.77,R
,1771131,2535,0,1840,-0.103,-0.069,0.994,-6.28,-3.24,-6.14,R
,1771141,2530,0,1843,-0.122,-0.050,0.990,-5.27,-1.16,-4.57,R
,1771151,2526,0,1846,-0.132,-0.032,1.009,-4.11,-0.83,-2.95,R
,1771161,2529,0,1841,-0.131,-0.026,1.016,-4.11,-2.60,-4.17,R
,1771171,2531,0,1841,-0.136,-0.032,1.025,-4.20,-4.77,-5.10,R
,1771181,2525,0,1841,-0.107,-0.044,1.010,-3.15,-6.97,-6.34,R
,1771191,2515,0,1840,-0.096,-0.057,0.985,-2.93,-7.36,-6.81,R
,1771201,2480,0,1840,-0.120,-0.015,1.017,-7.30,-5.03,-2.93,R
,1771211,2518,0,1841,-0.082,-0.017,1.077,-5.87,-3.26,-3.13,R
,1771221,2525,0,1840,-0.076,-0.010,1.080,-8.66,1.72,-4.83,R
,1771231,2522,0,1843,-0.094,-0.030,1.063,-8.40,3.02,-5.12,R
,1771241,2539,0,1844,-0.087,-0.045,1.025,-7.38,2.74,-5.06,R
,1771251,2548,0,1846,-0.094,-0.055,0.992,-6.35,3.52,-5.12,R
,1771261,2533,0,1843,-0.104,-0.063,0.984,-5.99,2.74,-5.70,R
,1771271,2531,0,1846,-0.134,-0.058,0.976,-5.27,0.35,-5.51,R
,1771281,2528,0,1846,-0.147,-0.053,0.992,-3.84,-3.79,-4.81,R
,1771291,2529,0,1840,-0.132,-0.020,1.012,-3.73,-4.74,-3.93,R
,1771301,2527,0,1844,-0.120,-0.009,1.038,-3.77,-4.03,-4.08,R
,1771311,2527,0,1847,-0.109,-0.013,1.044,-5.58,-2.69,-4.37,R
,1771321,2528,0,1843,-0.109,-0.033,1.032,-6.86,-2.83,-5.21,R
,1771331,2525,0,1847,-0.111,-0.047,1.017,-7.56,-2.00,-4.51,R
,1771341,2523,0,1847,-0.104,-0.044,1.023,-7.76,-0.65,-3.50,R
,1771351,2512,0,1842,-0.109,-0.037,1.035,-8.19,0.27,-2.80,R
,1771361,2513,0,1847,-0.102,-0.041,1.032,-7.32,-1.29,-3.42,R
,1771371,2534,0,1847,-0.110,-0.030,1.023,-7.56,-2.39,-3.73,R
,1771381,2527,0,1843,-0.100,-0.034,1.025,-7.77,-2.32,-3.44,R
,1771391,2526,0,1846,-0.095,-0.032,1.022,-7.39,-0.94,-3.65,R
,1771401,2519,0,1845,-0.101,-0.040,1.027,-6.93,0.96,-3.41,R
,1771411,2530,0,1850,-0.111,-0.036,1.020,-6.89,2.45,-3.21,R
,1771421,2514,0,1846,-0.120,-0.039,1.025,-6.57,2.67,-3.18,R
,1771431,2515,0,1849,-0.129,-0.035,1.009,-6.71,1.83,-3.56,R
,1771441,2514,0,1851,-0.138,-0.034,0.991,-6.77,-1.82,-4.93,R
,1771451,2512,0,1849,-0.150,-0.041,0.983,-8.34,-5.78,-5.28,R
,1771461,2501,0,1844,-0.140,-0.041,0.985,-8.68,-8.32,-5.74,R
,1771471,2461,0,1846,-0.135,-0.033,1.004,-8.39,-8.51,-5.16,R
,1771481,2493,0,1843,-0.107,-0.042,1.016,-7.30,-7.61,-6.16,R
,1771491,2476,0,1850,-0.117,-0.043,1.023,-7.21,-5.59,-5.80,R
,1771501,2469,0,1846,-0.119,-0.034,1.024,-7.77,-4.72,-4.55,R
,1771511,2473,0,1847,-0.120,-0.025,1.012,-9.21,-4.87,-3.16,R
,1771521,2465,0,1845,-0.105,-0.045,1.034,-10.51,-5.39,-3.42,R
,1771531,2470,0,1842,-0.104,-0.042,1.016,-9.61,-4.89,-4.09,R
,1771541,2455,0,1843,-0.099,-0.051,1.038,-8.77,-4.19,-3.42,R
,1771551,2464,0,1843,-0.102,-0.045,1.030,-9.42,-2.57,-2.41,R
,1771561,2461,0,1842,-0.107,-0.055,1.021,-9.85,-2.22,-2.45,R
,1771571,2465,0,1840,-0.118,-0.045,1.028,-10.60,-2.65,-2.78,R
,1771581,2466,0,1840,-0.131,-0.043,1.005,-11.35,-3.90,-1.74,R
,1771591,2463,0,1840,-0.115,-0.043,1.012,-10.98,-6.48,-2.93,R
,1771601,2464,0,1843,-0.106,-0.044,1.026,-10.66,-6.16,-3.21,R
,1771611,2464,0,1844,-0.093,-0.050,1.033,-9.96,-5.26,-2.93,R
,1771621,2460,0,1843,-0.075,-0.055,1.029,-7.94,-4.23,-3.73,R
,1771631,2463,0,1842,-0.082,-0.055,1.023,-6.78,-1.78,-4.02,R
,1771641,2464,0,1841,-0.084,-0.060,1.027,-5.35,-0.20,-4.25,R
,1771651,2461,0,1843,-0.096,-0.055,1.027,-5.03,-0.28,-4.35,R
,1771661,2463,0,1843,-0.105,-0.055,1.014,-5.32,-1.96,-4.60,R
,1771671,2462,0,1842,-0.108,-0.044,1.028,-5.91,-3.50,-4.29,R
,1771681,2448,0,1846,-0.099,-0.048,1.026,-6.48,-5.13,-4.49,R
,1771691,2463,0,1845,-0.091,-0.051,1.014,-6.49,-4.78,-4.57,R
,1771701,2467,0,1847,-0.090,-0.046,1.024,-5.42,-3.58,-4.84,R
,1771711,2458,0,1843,-0.085,-0.046,1.031,-5.07,-1.91,-4.98,R
,1771721,2459,0,1845,-0.095,-0.050,1.032,-4.86,-1.67,-5.07,R
,1771731,2461,0,1847,-0.103,-0.047,1.032,-5.10,-1.68,-4.54,R
,1771741,2460,0,1842,-0.104,-0.043,1.033,-5.70,-2.28,-4.20,R
,1771751,2444,0,1847,-0.104,-0.044,1.026,-6.60,-1.96,-4.08,R
,1771761,2458,0,1849,-0.097,-0.048,1.021,-6.57,-2.02,-4.08,R
,1771771,2457,0,1845,-0.091,-0.054,1.022,-5.73,-1.13,-5.01,R
,1771781,2416,0,1845,-0.102,-0.054,1.018,-5.32,-0.49,-4.09,R
,1771791,2423,0,1843,-0.095,-0.062,1.009,-4.68,0.50,-4.89,R
,1771801,2450,0,1843,-0.113,-0.056,1.018,-3.53,-0.14,-5.04,R
,1771811,2449,0,1843,-0.124,-0.044,1.015,-3.42,-1.23,-5.50,R
,1771821,2448,0,1841,-0.118,-0.046,1.017,-4.75,-1.71,-4.61,R
,1771831,2451,0,1846,-0.117,-0.040,1.023,-5.07,-2.26,-4.81,R
,1771841,2448,0,1838,-0.108,-0.050,1.025,-4.95,-1.35,-5.09,R
,1771851,2448,0,1840,-0.110,-0.048,1.032,-5.09,-0.87,-4.74,R
,1771861,2448,0,1842,-0.112,-0.043,1.023,-5.70,-0.83,-4.03,R
,1771871,2449,0,1845,-0.104,-0.044,1.031,-5.03,-0.75,-4.38,R
,1771881,2448,0,1840,-0.121,-0.024,1.014,-6.03,0.70,-3.03,R
,1771891,2448,0,1842,-0.114,-0.037,1.022,-6.22,0.71,-3.28,R
,1771901,2448,0,1841,-0.122,-0.032,1.017,-7.38,0.04,-2.58,R
,1771911,2446,0,1851,-0.105,-0.048,1.021,-6.89,-1.85,-2.72,R
,1771921,2447,0,1844,-0.111,-0.044,1.023,-6.89,-3.42,-3.68,R
,1771931,2445,0,1842,-0.099,-0.052,1.011,-6.32,-3.68,-3.61,R
,1771941,2439,0,1843,-0.105,-0.054,1.023,-5.00,-3.47,-3.48,R
,1771951,2432,0,1845,-0.100,-0.053,1.032,-4.71,-1.47,-3.42,R
,1771961,2422,0,1845,-0.098,-0.058,1.028,-3.74,0.07,-3.06,R
,1771971,2414,0,1846,-0.093,-0.052,1.031,-2.28,2.15,-3.91,R
,1771981,2388,0,1843,-0.097,-0.057,1.027,-0.68,5.64,-4.12,R
,1771991,2380,0,1841,-0.096,-0.045,1.034,-0.06,8.94,-3.51,R
,1772001,2381,0,1843,-0.097,-0.056,1.031,-1.52,9.69,-3.22,R
,1772011,2378,0,1841,-0.103,-0.049,1.023,-0.08,7.66,-3.35,R
,1772021,2366,0,1844,-0.117,-0.030,1.001,-2.25,5.46,-2.64,R
,1772031,2385,0,1841,-0.113,-0.045,1.034,-4.92,0.73,-4.48,R
,1772041,2370,0,1841,-0.129,-0.049,1.045,-4.64,-1.94,-4.31,R
,1772051,2345,0,1841,-0.106,-0.041,1.047,-4.57,-3.52,-4.51,R
,1772061,2375,0,1845,-0.116,-0.043,1.038,-3.64,-2.19,-3.94,R
,1772071,2370,0,1846,-0.110,-0.047,1.030,-2.39,-0.74,-4.55,R
,1772081,2341,0,1842,-0.128,-0.044,1.028,-1.59,0.30,-3.35,R
,1772091,2318,0,1845,-0.127,-0.041,1.030,-1.06,-0.03,-3.27,R
,1772101,2253,0,1841,-0.137,-0.028,1.029,-1.59,-1.21,-2.67,R
,1772111,2226,0,1846,-0.137,-0.033,1.035,-0.71,-2.36,-2.35,R
,1772121,2174,0,1841,-0.139,-0.022,1.025,-1.16,-4.57,-2.77,R
,1772131,2100,0,1840,-0.143,-0.035,1.028,-0.61,-7.59,-2.31,R
,1772141,1994,0,1840,-0.133,-0.032,1.011,-0.66,-10.45,-1.59,R
,1772151,1840,0,1840,-0.121,-0.053,1.015,-0.57,-13.73,-0.61,R
,1772161,1743,0,1842,-0.110,-0.059,1.000,1.40,-16.71,0.38,R
,1772171,1554,0,1849,-0.109,-0.053,0.997,1.42,-18.58,1.49,R
,1772181,1458,0,1842,-0.113,-0.036,0.981,1.89,-19.13,3.07,R
,1772191,1355,0,1842,-0.116,-0.022,1.003,0.79,-19.42,3.42,R
,1772201,1290,0,1843,-0.114,-0.027,1.013,-0.71,-21.93,3.01,R
,1772211,1270,0,1840,-0.118,-0.022,1.039,-3.18,-26.37,2.82,R
,1772221,1170,0,1844,-0.112,-0.021,1.037,-2.20,-29.87,0.13,R
,1772231,1155,0,1847,-0.098,-0.021,1.005,-4.95,-31.61,-0.35,R
,1772241,1101,0,1845,-0.102,-0.024,1.006,-7.99,-32.87,-0.70,R
,1772251,1050,0,1842,-0.093,-0.062,1.013,-9.09,-34.26,-3.53,R
,1772261,880,0,1840,-0.088,-0.072,1.028,-5.84,-36.19,-5.47,R
,1772271,793,0,1840,-0.074,-0.096,1.031,-4.25,-36.25,-6.46,R
,1772281,511,0,1842,-0.057,-0.107,1.037,-2.10,-34.65,-7.16,R
,1772291,438,0,1840,-0.019,-0.087,1.034,1.78,-30.16,-8.60,R
,1772301,291,0,1842,-0.012,-0.072,1.052,5.28,-25.96,-7.97,R
,1772311,256,0,1849,-0.002,-0.050,1.062,7.05,-20.26,-7.03,R
,1772321,182,0,1843,0.011,-0.028,1.077,6.71,-13.81,-6.52,R
,1772331,47,0,1845,-0.011,-0.011,1.094,5.68,-10.84,-6.96,R
,1772341,18,0,1842,-0.010,0.002,1.072,4.58,-11.18,-7.39,R
,1772351,9,0,1841,-0.009,0.004,1.120,3.51,-12.87,-9.33,R
,1772361,0,0,1840,-0.023,0.009,1.076,-4.25,-16.71,-10.09,R
,1772371,0,0,1839,-0.025,0.012,1.076,-5.91,-19.21,-11.39,R
,1772381,0,0,1840,-0.039,0.000,1.073,-3.09,-18.43,-11.59,R
,1772391,0,0,1840,-0.029,0.014,1.066,0.88,-16.13,-11.48,R
,1772401,0,0,1845,-0.031,0.010,1.064,3.61,-12.83,-10.84,R
,1772411,0,0,1845,-0.037,0.012,1.048,6.26,-10.74,-10.00,R
,1772421,0,0,1843,-0.051,-0.034,1.031,4.13,-7.29,-11.68,R
,1772431,0,0,1845,-0.042,0.016,1.027,7.97,-7.85,-12.22,R
,1772441,0,0,1840,-0.036,0.024,1.044,7.52,-5.78,-10.23,R
,1772451,0,0,1847,-0.026,0.038,1.027,5.63,-4.19,-8.78,R
,1772461,0,0,1846,-0.022,0.021,1.038,3.13,-4.54,-9.33,R
,1772471,0,0,1845,-0.022,0.008,1.042,2.93,-4.63,-10.03,R
,1772481,0,0,1843,-0.010,0.011,1.056,0.68,-6.28,-9.67,R
,1772491,0,0,1853,0.000,-0.003,1.045,1.08,-8.31,-9.35,R
,1772501,0,0,1844,0.009,-0.020,1.047,0.23,-7.82,-9.85,R
,1772511,0,0,1846,0.011,-0.015,1.039,1.90,-7.91,-9.77,R
,1772521,0,0,1849,0.021,-0.018,1.035,1.40,-5.87,-9.62,R
,1772531,0,0,1845,0.010,-0.009,1.015,3.07,-1.99,-9.48,R
,1772541,0,0,1843,0.003,0.001,1.005,3.75,0.55,-9.15,R
,1772551,0,0,1847,-0.010,0.019,1.008,3.14,1.69,-9.32,R
,1772561,0,0,1844,-0.031,0.022,0.999,2.04,2.33,-8.81,R
,1772571,0,0,1847,-0.029,0.031,0.993,1.05,2.27,-8.46,R
,1772581,0,0,1849,-0.032,0.042,1.007,1.34,1.78,-8.96,R
,1772591,0,0,1851,-0.030,0.046,1.004,0.59,1.52,-8.43,R
,1772601,0,0,1842,-0.021,0.047,1.005,1.11,1.60,-8.66,R
,1772611,0,0,1847,-0.023,0.030,1.001,-0.16,1.42,-8.64,R
,1772621,0,0,1850,-0.028,0.043,1.005,0.91,0.94,-8.41,R
,1772631,0,0,1844,-0.029,0.052,0.990,2.18,0.15,-7.62,R
,1772641,0,0,1845,-0.014,0.045,0.999,2.84,0.01,-7.58,R
,1772651,0,0,1843,-0.004,0.063,0.998,1.45,0.85,-6.00,R
,1772661,0,0,1840,-0.010,0.065,0.998,-0.20,1.43,-5.64,R
,1772671,0,0,1844,-0.010,0.063,0.981,-0.35,1.74,-5.51,R
,1772681,0,0,1840,-0.020,0.075,0.983,-1.44,4.59,-4.70,R
,1772691,3,0,1844,-0.035,0.069,0.977,-2.00,7.68,-3.85,R
,1772701,0,0,1842,-0.035,0.069,0.998,-1.09,5.57,-4.63,R
,1772711,0,0,1845,-0.025,0.060,0.994,-1.41,2.12,-5.38,R
,1772721,0,0,1845,-0.028,0.076,1.011,-2.51,0.38,-4.74,R
,1772731,0,0,1844,-0.034,0.072,1.002,-3.64,-0.81,-5.25,R
,1772741,11,0,1841,-0.025,0.071,1.017,-5.07,-2.75,-6.34,R
,1772751,0,0,1846,-0.014,0.057,1.021,-6.39,-4.20,-6.93,R
,1772761,16,0,1840,-0.014,0.054,1.017,-6.81,-3.35,-5.83,R
,1772771,13,0,1842,-0.013,0.051,1.018,-6.89,-0.08,-3.58,R
,1772781,18,0,1846,-0.010,0.043,1.026,-6.63,2.77,-2.20,R
,1772791,30,0,1843,-0.010,0.037,1.018,-5.90,5.37,-1.82,R
,1772801,20,0,1842,-0.021,0.031,1.028,-5.16,5.48,-1.99,R
,1772811,13,0,1845,-0.030,0.032,1.048,-2.42,3.75,-1.53,R
,1772821,16,0,1841,-0.031,0.033,1.031,-0.20,1.32,-1.62,R
,1772831,26,0,1842,-0.015,0.039,1.039,0.88,-0.54,-3.01,R
,1772841,26,0,1840,-0.024,0.048,1.033,0.10,-1.76,-4.00,R
,1772851,24,0,1840,-0.033,0.046,1.041,-0.71,-3.70,-4.52,R
,1772861,3,0,1842,-0.028,0.045,1.057,-1.67,-6.05,-4.46,R
,1772871,14,0,1845,-0.014,0.046,1.035,-2.83,-8.02,-4.78,R
,1772881,10,0,1843,-0.013,0.042,1.037,-4.61,-7.93,-4.57,R
,1772891,15,0,1843,-0.006,0.037,1.042,-4.98,-5.32,-4.51,R
,1772901,6,0,1843,-0.003,0.028,1.047,-3.65,-2.95,-4.51,R
,1772911,16,0,1843,-0.005,0.027,1.042,-1.91,-0.20,-4.63,R
,1772921,26,0,1845,-0.020,0.032,1.042,-0.51,1.35,-4.81,R
,1772931,14,0,1843,-0.023,0.035,1.046,1.17,2.24,-4.60,R
,1772941,15,0,1841,-0.031,0.039,1.034,0.73,1.14,-5.35,R
,1772951,15,0,1848,-0.031,0.042,1.037,-0.40,-1.82,-7.13,R
,1772961,16,0,1843,-0.031,0.033,1.038,-1.04,-4.69,-8.40,R
,1772971,16,0,1840,-0.032,0.037,1.034,-1.06,-6.36,-8.37,R
,1772981,17,0,1840,-0.018,0.036,1.045,-1.96,-7.55,-8.87,R
,1772991,21,0,1841,-0.011,0.028,1.027,-0.25,-8.72,-10.98,R
,1773001,20,0,1840,-0.022,0.034,1.010,1.22,-6.05,-11.15,R
,1773011,27,0,1843,-0.030,0.045,1.005,3.03,-2.86,-10.00,R
,1773021,16,0,1846,-0.021,0.048,1.002,4.13,-0.13,-9.76,R
,1773031,33,0,1845,-0.022,0.052,0.993,3.19,1.05,-10.00,R
,1773041,27,0,1843,-0.025,0.056,0.981,1.17,1.80,-10.31,R
,1773051,18,0,1842,-0.039,0.063,0.985,-1.93,0.96,-10.22,R
,1773061,23,0,1841,-0.050,0.067,0.995,-4.52,-1.16,-9.35,R
,1773071,29,0,1843,-0.047,0.078,0.995,-6.31,-4.11,-9.12,R
,1773081,34,0,1840,-0.039,0.080,1.005,-8.83,-5.52,-8.38,R
,1773091,45,0,1843,-0.034,0.078,1.021,-9.87,-6.69,-7.99,R
,1773101,38,0,1842,-0.017,0.074,1.016,-10.00,-7.04,-8.40,R
,1773111,53,0,1840,-0.013,0.066,1.015,-9.52,-5.42,-8.32,R
,1773121,42,0,1839,-0.010,0.070,1.014,-8.05,-3.23,-7.45,R
,1773131,65,0,1840,-0.017,0.070,1.011,-6.34,-0.02,-7.21,R
,1773141,48,0,1840,-0.027,0.075,1.015,-4.97,2.15,-6.66,R
,1773151,10,0,1843,-0.038,0.083,1.021,-5.50,2.42,-6.14,R
,1773161,51,0,1844,-0.046,0.086,1.023,-5.67,0.73,-6.00,R
,1773171,48,0,1842,-0.035,0.085,1.029,-6.11,-2.19,-7.25,R
,1773181,48,0,1841,-0.034,0.092,1.021,-6.87,-3.94,-7.09,R
,1773191,48,0,1840,-0.039,0.096,1.027,-7.01,-3.41,-5.80,R
,1773201,48,0,1841,-0.028,0.088,1.023,-6.57,-2.52,-4.98,R
,1773211,49,0,1847,-0.026,0.079,1.037,-6.60,-2.07,-5.33,R
,1773221,48,0,1842,-0.028,0.073,1.048,-6.02,-1.79,-5.36,R
,1773231,48,0,1845,-0.030,0.074,1.041,-4.80,-1.67,-3.85,R
,1773241,49,0,1840,-0.034,0.067,1.049,-4.22,-0.94,-2.38,R
,1773251,48,0,1840,-0.025,0.064,1.058,-4.28,-0.87,-2.45,R
,1773261,48,0,1840,-0.030,0.052,1.052,-4.58,-1.33,-2.22,R
,1773271,48,0,1840,-0.028,0.048,1.058,-4.78,-2.78,-2.08,R
,1773281,48,0,1842,-0.024,0.051,1.065,-4.34,-4.68,-2.28,R
,1773291,48,0,1840,-0.020,0.042,1.063,-4.08,-5.30,-2.46,R
,1773301,54,0,1840,-0.022,0.037,1.056,-2.86,-5.91,-2.89,R
,1773311,46,0,1840,-0.016,0.025,1.044,-1.96,-5.76,-3.56,R
,1773321,44,0,1840,-0.019,0.021,1.040,-1.26,-4.65,-3.67,R
,1773331,44,0,1846,-0.017,0.014,1.053,0.03,-5.04,-4.81,R
,1773341,47,0,1840,-0.010,0.011,1.048,1.29,-5.74,-5.48,R
,1773351,49,0,1840,-0.010,0.018,1.032,2.65,-4.72,-5.90,R
,1773361,46,0,1843,-0.012,0.032,1.026,2.33,-2.65,-5.15,R
,1773371,52,0,1851,-0.018,0.030,1.014,2.12,-2.10,-5.32,R
,1773381,74,0,1843,-0.011,0.042,1.011,1.43,-3.45,-6.26,R
,1773391,58,0,1844,-0.008,0.044,1.005,1.66,-4.13,-7.21,R
,1773401,65,0,1844,-0.017,0.047,1.000,0.82,-3.70,-6.74,R
,1773411,67,0,1841,-0.022,0.042,1.018,0.76,-2.48,-5.96,R
,1773421,59,0,1841,-0.012,0.053,1.017,3.89,-3.85,-8.05,R
,1773431,77,0,1840,-0.028,0.060,1.000,6.45,-1.65,-7.87,R
,1773441,64,0,1840,-0.025,0.076,1.006,8.68,-0.46,-7.30,R
,1773451,67,0,1850,-0.028,0.094,1.009,9.45,0.97,-6.25,R
,1773461,64,0,1844,-0.033,0.112,1.002,9.16,2.53,-5.15,R
,1773471,67,0,1846,-0.033,0.118,0.999,7.97,3.71,-4.25,R
,1773481,66,0,1841,-0.046,0.135,1.003,6.06,3.55,-2.61,R
,1773491,67,0,1849,-0.054,0.145,1.000,4.21,2.41,-0.96,R
,1773501,69,0,1841,-0.053,0.152,1.012,1.80,0.21,-0.26,R
,1773511,64,0,1845,-0.052,0.148,1.015,-1.36,-2.63,-0.12,R
,1773521,70,0,1843,-0.041,0.136,1.015,-3.24,-5.30,-0.17,R
,1773531,69,0,1843,-0.028,0.123,1.020,-5.59,-6.52,0.56,R
,1773541,73,0,1843,-0.018,0.108,1.038,-6.14,-5.84,1.22,R
,1773551,70,0,1840,-0.004,0.094,1.044,-4.46,-5.41,0.50,R
,1773561,66,0,1840,0.001,0.096,1.050,-2.58,-2.87,-0.16,R
,1773571,70,0,1840,-0.009,0.096,1.061,-1.18,-1.52,0.06,R
,1773581,73,0,1841,-0.011,0.095,1.064,0.70,-2.03,-0.29,R
,1773591,66,0,1843,-0.007,0.099,1.058,0.81,-1.41,-0.75,R
,1773601,71,0,1846,-0.009,0.099,1.057,0.79,-0.98,-0.84,R
,1773611,69,0,1843,-0.018,0.098,1.056,1.17,-1.23,-1.24,R
,1773621,71,0,1841,-0.017,0.096,1.061,2.27,-1.82,-0.87,R
,1773631,68,0,1845,-0.021,0.089,1.052,3.36,-2.69,-0.49,R
,1773641,66,0,1841,-0.023,0.089,1.051,4.09,-3.47,-0.69,R
,1773651,81,0,1841,-0.021,0.083,1.035,3.54,-4.94,-1.22,R
,1773661,80,0,1840,-0.021,0.088,1.033,2.67,-5.74,-1.48,R
,1773671,78,0,1845,-0.016,0.077,1.008,1.42,-6.37,-0.66,R
,1773681,73,0,1840,-0.011,0.099,0.935,2.36,-4.23,-0.64,R
,1773691,82,0,1847,0.051,0.067,1.008,-5.01,-6.98,-6.64,R
,1773701,30,0,1847,0.004,0.048,0.983,-6.03,-4.86,-6.74,R
,1773711,70,0,1845,-0.007,0.053,0.993,-2.51,-1.71,-3.68,R
,1773721,73,0,1843,0.020,0.056,0.990,0.26,0.74,-4.34,R
,1773731,70,0,1843,0.020,0.076,1.001,1.07,4.26,-5.83,R
,1773741,71,0,1849,-0.008,0.089,1.022,2.93,6.32,-7.12,R
,1773751,80,0,1851,-0.028,0.112,1.024,4.55,5.57,-7.82,R
,1773761,73,0,1854,-0.026,0.111,1.034,3.80,2.29,-8.86,R
,1773771,70,0,1845,-0.023,0.120,1.041,2.00,-1.44,-10.05,R
,1773781,73,0,1849,-0.028,0.126,1.025,0.82,-2.40,-9.54,R
,1773791,66,0,1840,-0.030,0.123,1.031,1.36,-3.04,-9.03,R
,1773801,75,0,1849,-0.022,0.136,1.016,3.60,-1.16,-7.68,R
,1773811,74,0,1851,-0.013,0.139,1.012,4.74,1.20,-6.98,R
,1773821,71,0,1849,-0.019,0.147,1.001,3.61,3.17,-6.87,R
,1773831,73,0,1842,-0.026,0.166,1.000,2.71,3.57,-6.99,R
,1773841,71,0,1846,-0.020,0.165,1.002,0.88,2.55,-7.24,R
,1773851,74,0,1844,-0.016,0.174,0.994,-2.29,0.64,-7.50,R
,1773861,70,0,1846,-0.032,0.170,1.000,-2.89,-0.03,-6.87,R
,1773871,75,0,1843,-0.022,0.164,1.000,-5.45,-0.39,-6.52,R
,1773881,72,0,1840,-0.021,0.153,1.007,-6.68,0.09,-6.32,R
,1773891,69,0,1839,-0.014,0.141,1.002,-6.29,-0.40,-6.61,R
,1773901,34,0,1842,-0.015,0.133,1.004,-4.77,-0.34,-7.06,R
,1773911,80,0,1841,-0.019,0.135,1.000,-2.26,0.44,-6.86,R
,1773921,79,0,1840,-0.025,0.145,1.003,0.85,2.21,-6.55,R
,1773931,81,0,1840,-0.020,0.151,0.988,1.84,2.97,-6.11,R
,1773941,76,0,1846,-0.029,0.160,0.980,-0.06,4.90,-5.61,R
,1773951,70,0,1843,-0.034,0.156,0.970,-2.19,3.57,-5.44,R
,1773961,78,0,1838,-0.041,0.157,0.973,-5.01,3.43,-4.22,R
,1773971,73,0,1841,-0.039,0.156,0.967,-7.45,2.44,-3.74,R
,1773981,77,0,1842,-0.035,0.150,0.980,-8.71,2.18,-2.93,R
,1773991,77,0,1840,-0.035,0.155,0.985,-9.59,2.76,-2.86,R
,1774001,77,0,1849,-0.044,0.149,1.002,-9.44,4.36,-2.63,R
,1774011,77,0,1846,-0.049,0.146,1.003,-8.80,4.39,-2.86,R
,1774021,70,0,1845,-0.055,0.145,1.011,-8.69,4.84,-2.78,R
,1774031,74,0,1849,-0.063,0.144,1.006,-9.42,5.22,-2.34,R
,1774041,80,0,1856,-0.070,0.145,1.018,-10.87,4.62,-2.40,R
,1774051,75,0,1851,-0.065,0.140,1.018,-13.04,2.55,-3.06,R
,1774061,75,0,1850,-0.065,0.130,1.033,-14.08,0.15,-3.19,R
,1774071,71,0,1850,-0.057,0.127,1.028,-13.84,-1.12,-3.07,R
,1774081,69,0,1847,-0.041,0.122,1.030,-13.18,0.26,-2.95,R
,1774091,79,0,1847,-0.036,0.122,1.040,-11.18,2.76,-2.80,R
,1774101,73,0,1847,-0.033,0.126,1.040,-8.55,4.96,-2.63,R
,1774111,73,0,1849,-0.042,0.135,1.041,-7.62,5.58,-2.72,R
,1774121,77,0,1845,-0.050,0.142,1.038,-7.65,5.66,-2.03,R
