wallclock_iso,t_ms,fsr1,fsr2,emg,ax,ay,az,gx,gy,gz,mode
,38071,67,0,1837,0.230,0.843,0.489,2.13,-4.65,-5.45,R
,38081,64,0,1836,0.232,0.838,0.482,1.58,-5.50,-6.32,R
,38091,65,0,1836,0.232,0.842,0.469,0.33,-5.74,-6.80,R
,38101,64,0,1835,0.220,0.845,0.454,-1.35,-6.36,-6.45,R
,38111,64,0,1837,0.214,0.835,0.442,-3.56,-7.53,-6.06,R
,38121,64,0,1838,0.221,0.826,0.432,-5.79,-8.26,-5.32,R
,38131,70,0,1837,0.243,0.830,0.421,-5.06,-7.03,-5.44,R
,38141,69,0,1837,0.251,0.830,0.426,-4.77,-4.11,-6.09,R
,38151,64,0,1837,0.250,0.821,0.432,-4.39,-1.33,-7.38,R
,38161,49,0,1840,0.243,0.830,0.437,-4.22,1.23,-7.67,R
,38171,71,0,1840,0.237,0.839,0.447,-4.13,3.25,-7.76,R
,38181,66,0,1841,0.225,0.855,0.463,-4.55,4.48,-7.19,R
,38191,67,0,1840,0.208,0.866,0.477,-6.13,3.86,-6.38,R
,38201,64,0,1840,0.215,0.880,0.471,-7.15,2.38,-6.40,R
,38211,66,0,1841,0.205,0.883,0.477,-8.93,0.35,-6.83,R
,38221,49,0,1840,0.197,0.881,0.477,-10.92,-0.94,-6.90,R
,38231,75,0,1840,0.198,0.874,0.480,-11.13,-0.95,-5.39,R
,38241,67,0,1841,0.209,0.869,0.489,-8.75,0.85,-4.08,R
,38251,76,0,1841,0.223,0.863,0.479,-7.48,2.10,-3.93,R
,38261,73,0,1836,0.223,0.864,0.461,-7.12,1.95,-4.95,R
,38271,74,0,1841,0.213,0.865,0.455,-7.16,1.95,-5.80,R
,38281,69,0,1839,0.202,0.863,0.455,-7.07,3.23,-5.67,R
,38291,65,0,1841,0.200,0.865,0.453,-7.76,4.56,-4.63,R
,38301,66,0,1845,0.193,0.857,0.447,-8.42,5.43,-3.41,R
,38311,71,0,1839,0.200,0.863,0.454,-9.58,5.55,-2.06,R
,38321,75,0,1841,0.213,0.862,0.454,-10.80,4.68,-0.93,R
,38331,68,0,1840,0.217,0.865,0.464,-12.11,3.58,-1.38,R
,38341,70,0,1846,0.223,0.864,0.463,-13.68,4.15,-2.46,R
,38351,73,0,1838,0.220,0.851,0.468,-14.20,3.87,-2.45,R
,38361,71,0,1838,0.217,0.852,0.470,-12.90,5.68,-2.69,R
,38371,70,0,1838,0.237,0.857,0.484,-11.03,8.12,-2.66,R
,38381,69,0,1840,0.190,0.850,0.492,-6.92,5.57,-1.45,R
,38391,67,0,1839,0.232,0.871,0.487,-10.98,6.53,-2.81,R
,38401,71,0,1839,0.193,0.869,0.493,-16.52,6.97,-2.77,R
,38411,67,0,1839,0.200,0.865,0.521,-13.97,10.51,-0.41,R
,38421,68,0,1840,0.201,0.861,0.506,-11.71,7.58,2.27,R
,38431,68,0,1840,0.210,0.857,0.510,-14.39,3.13,0.88,R
,38441,68,0,1840,0.204,0.850,0.515,-17.36,0.67,-0.25,R
,38451,78,0,1843,0.216,0.838,0.529,-15.30,2.42,-0.28,R
,38461,73,0,1841,0.226,0.833,0.526,-10.57,5.14,0.58,R
,38471,73,0,1840,0.229,0.834,0.527,-8.08,6.07,0.01,R
,38481,64,0,1840,0.222,0.838,0.523,-9.18,2.67,-0.52,R
,38491,80,0,1839,0.232,0.836,0.513,-11.30,3.39,-1.67,R
,38501,66,0,1840,0.210,0.824,0.506,-11.76,4.03,-1.04,R
,38511,65,0,1838,0.214,0.813,0.514,-12.08,3.37,0.03,R
,38521,69,0,1840,0.219,0.806,0.512,-14.29,0.61,0.21,R
,38531,67,0,1840,0.241,0.803,0.512,-15.03,-0.77,-0.41,R
,38541,67,0,1840,0.250,0.795,0.518,-13.73,-0.31,-1.65,R
,38551,65,0,1840,0.246,0.787,0.532,-13.27,1.43,-2.64,R
,38561,71,0,1840,0.243,0.797,0.540,-11.99,2.59,-2.52,R
,38571,69,0,1837,0.246,0.803,0.562,-11.12,4.91,-2.81,R
,38581,69,0,1839,0.251,0.804,0.560,-10.31,4.44,-3.68,R
,38591,66,0,1839,0.249,0.807,0.560,-11.47,2.82,-4.60,R
,38601,68,0,1840,0.234,0.806,0.565,-11.87,0.47,-5.99,R
,38611,69,0,1839,0.226,0.802,0.570,-11.42,-1.52,-6.75,R
,38621,65,0,1840,0.224,0.796,0.569,-10.69,-2.48,-7.64,R
,38631,65,0,1841,0.225,0.798,0.557,-9.01,-4.08,-7.73,R
,38641,68,0,1840,0.224,0.813,0.551,-7.93,-4.22,-8.72,R
,38651,69,0,1840,0.232,0.816,0.546,-8.29,-5.32,-9.71,R
,38661,67,0,1840,0.231,0.819,0.528,-8.40,-6.19,-10.16,R
,38671,71,0,1841,0.229,0.813,0.526,-8.75,-5.90,-10.32,R
,38681,69,0,1846,0.224,0.810,0.532,-8.31,-5.12,-10.69,R
,38691,66,0,1842,0.216,0.808,0.527,-7.68,-3.61,-10.32,R
,38701,74,0,1840,0.211,0.805,0.515,-6.78,-1.84,-9.97,R
,38711,71,0,1840,0.215,0.814,0.520,-5.29,-1.23,-9.79,R
,38721,66,0,1840,0.218,0.819,0.514,-4.95,-1.61,-10.03,R
,38731,73,0,1840,0.214,0.832,0.522,-6.13,-2.54,-10.40,R
,38741,73,0,1841,0.214,0.840,0.519,-7.65,-3.35,-10.74,R
,38751,79,0,1841,0.217,0.845,0.526,-8.17,-3.39,-10.75,R
,38761,74,0,1841,0.214,0.848,0.534,-8.78,-2.69,-10.95,R
,38771,71,0,1840,0.199,0.844,0.528,-8.61,-2.32,-11.30,R
,38781,68,0,1840,0.198,0.828,0.519,-7.97,-2.05,-11.32,R
,38791,69,0,1840,0.204,0.829,0.512,-4.20,-1.67,-10.96,R
,38801,70,0,1840,0.210,0.830,0.508,1.25,0.67,-11.85,R
,38811,70,0,1838,0.198,0.853,0.485,2.18,1.72,-13.04,R
,38821,66,0,1843,0.188,0.856,0.488,-1.48,1.92,-14.49,R
,38831,74,0,1842,0.179,0.874,0.480,-6.05,0.68,-13.32,R
,38841,67,0,1847,0.163,0.871,0.491,-7.38,1.08,-10.49,R
,38851,74,0,1842,0.173,0.873,0.499,-8.84,2.90,-7.39,R
,38861,74,0,1838,0.177,0.875,0.506,-10.42,3.51,-5.32,R
,38871,72,0,1841,0.185,0.875,0.525,-11.36,2.80,-4.74,R
,38881,65,0,1845,0.195,0.863,0.527,-10.29,2.44,-5.53,R
,38891,69,0,1844,0.204,0.856,0.532,-9.19,1.34,-6.74,R
,38901,68,0,1841,0.186,0.852,0.527,-8.83,1.20,-7.22,R
,38911,66,0,1840,0.179,0.851,0.539,-7.26,1.77,-6.51,R
,38921,68,0,1840,0.178,0.852,0.544,-6.34,2.62,-5.58,R
,38931,67,0,1840,0.175,0.862,0.530,-7.44,2.76,-4.49,R
,38941,71,0,1840,0.181,0.854,0.536,-9.04,2.36,-3.97,R
,38951,66,0,1839,0.191,0.849,0.533,-9.59,0.55,-4.05,R
,38961,67,0,1840,0.194,0.838,0.537,-8.81,-0.87,-4.40,R
,38971,69,0,1838,0.202,0.828,0.533,-8.52,-1.53,-5.15,R
,38981,69,0,1835,0.202,0.811,0.527,-6.64,-0.42,-5.79,R
,38991,67,0,1839,0.190,0.814,0.530,-5.36,1.71,-5.76,R
,39001,54,0,1840,0.190,0.813,0.533,-3.55,3.87,-4.67,R
,39011,56,0,1840,0.199,0.821,0.532,-2.68,4.93,-4.41,R
,39021,80,0,1842,0.186,0.834,0.527,-4.11,4.21,-4.40,R
,39031,71,0,1840,0.181,0.849,0.526,-7.38,2.51,-4.32,R
,39041,71,0,1841,0.176,0.848,0.538,-10.10,0.32,-3.73,R
,39051,69,0,1840,0.185,0.845,0.543,-11.32,-1.36,-2.89,R
,39061,66,0,1840,0.195,0.834,0.558,-11.15,-1.76,-2.66,R
,39071,69,0,1840,0.196,0.829,0.562,-9.58,-1.30,-2.81,R
,39081,73,0,1837,0.195,0.825,0.558,-6.92,-0.42,-3.54,R
,39091,69,0,1838,0.196,0.824,0.561,-4.00,0.36,-4.19,R
,39101,71,0,1840,0.195,0.833,0.555,-1.45,0.97,-4.40,R
,39111,71,0,1840,0.181,0.851,0.540,-2.77,-0.58,-3.99,R
,39121,69,0,1839,0.180,0.862,0.552,-5.21,-1.94,-2.98,R
,39131,70,0,1841,0.186,0.851,0.557,-5.96,-4.23,-2.74,R
,39141,67,0,1841,0.193,0.834,0.544,-8.55,-5.62,-2.55,R
,39151,66,0,1840,0.195,0.816,0.539,-9.38,-6.11,-2.66,R
,39161,64,0,1837,0.206,0.805,0.541,-7.27,-5.70,-2.75,R
,39171,67,0,1840,0.210,0.798,0.535,-4.49,-4.84,-3.85,R
,39181,66,0,1840,0.208,0.800,0.525,-3.44,-4.11,-4.60,R
,39191,69,0,1840,0.200,0.813,0.526,-4.22,-3.65,-4.81,R
,39201,71,0,1840,0.195,0.819,0.522,-4.86,-3.20,-3.93,R
,39211,67,0,1843,0.208,0.825,0.521,-4.93,-2.57,-3.62,R
,39221,66,0,1840,0.215,0.832,0.531,-6.28,-3.73,-4.32,R
,39231,66,0,1841,0.206,0.831,0.531,-7.64,-4.58,-5.71,R
,39241,64,0,1840,0.193,0.819,0.538,-8.81,-5.33,-6.70,R
,39251,69,0,1840,0.194,0.814,0.542,-6.69,-4.55,-6.41,R
,39261,67,0,1840,0.189,0.823,0.538,-3.44,-2.51,-5.22,R
,39271,66,0,1841,0.190,0.828,0.531,-0.60,-0.22,-4.45,R
,39281,74,0,1840,0.202,0.847,0.512,-0.13,-0.72,-5.18,R
,39291,73,0,1840,0.201,0.865,0.501,-2.77,-1.84,-6.41,R
,39301,80,0,1837,0.193,0.859,0.499,-5.24,-2.74,-6.31,R
,39311,76,0,1838,0.187,0.853,0.504,-7.42,-2.69,-5.27,R
,39321,73,0,1837,0.187,0.839,0.516,-8.43,-1.71,-3.94,R
,39331,69,0,1838,0.198,0.830,0.518,-8.16,-0.08,-2.84,R
,39341,71,0,1835,0.208,0.828,0.528,-7.67,0.42,-3.48,R
,39351,69,0,1837,0.205,0.820,0.531,-6.51,0.35,-4.75,R
,39361,71,0,1840,0.198,0.825,0.535,-5.41,0.21,-5.25,R
,39371,70,0,1840,0.196,0.829,0.531,-4.68,0.48,-5.76,R
,39381,70,0,1843,0.193,0.833,0.526,-4.74,0.44,-5.67,R
,39391,74,0,1842,0.189,0.838,0.540,-5.70,-0.10,-4.90,R
,39401,69,0,1841,0.189,0.836,0.530,-6.28,-0.42,-5.12,R
,39411,70,0,1843,0.191,0.839,0.530,-7.32,-0.91,-5.13,R
,39421,72,0,1841,0.189,0.835,0.528,-7.55,-2.14,-5.44,R
,39431,66,0,1841,0.195,0.826,0.523,-7.99,-2.78,-5.50,R
,39441,69,0,1840,0.202,0.820,0.530,-6.17,-1.35,-5.65,R
,39451,71,0,1841,0.202,0.820,0.524,-4.55,0.32,-5.53,R
,39461,73,0,1846,0.190,0.822,0.515,-4.89,1.71,-5.77,R
,39471,67,0,1840,0.191,0.824,0.521,-6.32,1.23,-5.47,R
,39481,71,0,1840,0.191,0.830,0.520,-6.02,2.06,-5.36,R
,39491,70,0,1842,0.192,0.839,0.523,-6.71,1.49,-5.10,R
,39501,67,0,1838,0.190,0.847,0.534,-8.32,0.07,-5.10,R
,39511,65,0,1843,0.195,0.844,0.540,-9.56,-0.58,-5.41,R
,39521,70,0,1838,0.190,0.833,0.548,-10.23,-1.27,-5.41,R
,39531,69,0,1840,0.196,0.829,0.558,-9.12,-0.95,-5.07,R
,39541,70,0,1840,0.198,0.828,0.558,-6.16,0.22,-5.06,R
,39551,68,0,1838,0.196,0.829,0.554,-4.05,1.39,-5.65,R
,39561,70,0,1840,0.187,0.836,0.542,-4.28,0.27,-6.25,R
,39571,72,0,1839,0.175,0.838,0.552,-5.56,-0.78,-5.87,R
,39581,74,0,1841,0.180,0.837,0.550,-6.51,-1.26,-5.10,R
,39591,80,0,1840,0.177,0.837,0.542,-8.54,-2.89,-4.22,R
,39601,78,0,1840,0.190,0.830,0.530,-9.50,-4.72,-4.28,R
,39611,70,0,1839,0.209,0.818,0.541,-8.22,-4.87,-5.33,R
,39621,71,0,1841,0.213,0.811,0.538,-6.77,-4.37,-6.48,R
,39631,67,0,1840,0.209,0.822,0.524,-6.10,-3.16,-7.21,R
,39641,74,0,1841,0.200,0.831,0.525,-5.42,-2.03,-7.38,R
,39651,71,0,1845,0.189,0.837,0.528,-4.26,0.21,-6.95,R
,39661,74,0,1840,0.184,0.830,0.521,-4.42,0.68,-6.32,R
,39671,78,0,1840,0.177,0.836,0.519,-5.93,-0.54,-6.61,R
,39681,70,0,1840,0.171,0.842,0.523,-7.26,-1.52,-6.37,R
,39691,70,0,1838,0.169,0.847,0.523,-6.97,-1.41,-5.53,R
,39701,68,0,1840,0.174,0.847,0.535,-6.97,-0.51,-4.60,R
,39711,74,0,1845,0.187,0.848,0.525,-7.74,-0.98,-4.25,R
,39721,73,0,1843,0.185,0.842,0.530,-7.96,-1.12,-4.45,R
,39731,69,0,1840,0.188,0.839,0.536,-7.00,-0.65,-4.45,R
,39741,68,0,1840,0.193,0.827,0.536,-5.32,-0.19,-5.09,R
,39751,66,0,1839,0.197,0.829,0.540,-5.15,0.47,-5.22,R
,39761,67,0,1840,0.193,0.832,0.526,-4.31,1.45,-5.45,R
,39771,71,0,1841,0.189,0.821,0.537,-4.32,1.98,-5.82,R
,39781,65,0,1840,0.185,0.824,0.527,-6.37,1.39,-5.74,R
,39791,73,0,1842,0.182,0.826,0.542,-7.03,1.28,-4.78,R
,39801,69,0,1840,0.195,0.831,0.530,-7.12,0.21,-4.41,R
,39811,73,0,1840,0.200,0.831,0.534,-8.61,-1.67,-5.28,R
,39821,74,0,1843,0.195,0.832,0.544,-9.73,-2.28,-6.23,R
,39831,71,0,1841,0.197,0.830,0.542,-9.74,-1.88,-6.55,R
,39841,49,0,1844,0.187,0.822,0.558,-7.47,-0.16,-6.37,R
,39851,71,0,1843,0.178,0.824,0.563,-5.96,0.38,-6.29,R
,39861,81,0,1844,0.177,0.825,0.566,-4.43,-0.29,-6.00,R
,39871,71,0,1842,0.174,0.835,0.544,-3.55,-0.87,-5.87,R
,39881,82,0,1843,0.184,0.843,0.542,-3.81,-2.39,-5.91,R
,39891,75,0,1841,0.181,0.846,0.538,-5.93,-2.75,-5.67,R
,39901,72,0,1840,0.178,0.846,0.533,-8.16,-3.44,-5.73,R
,39911,71,0,1841,0.181,0.837,0.536,-9.55,-3.30,-5.25,R
,39921,69,0,1841,0.190,0.826,0.537,-8.80,-2.91,-4.78,R
,39931,69,0,1840,0.190,0.823,0.539,-7.03,-1.41,-4.89,R
,39941,71,0,1844,0.187,0.817,0.537,-5.94,-1.18,-5.38,R
,39951,74,0,1840,0.182,0.818,0.536,-5.13,-0.74,-6.12,R
,39961,67,0,1841,0.173,0.828,0.537,-5.09,-0.72,-5.42,R
,39971,69,0,1845,0.165,0.836,0.534,-5.81,-1.30,-4.99,R
,39981,67,0,1845,0.179,0.835,0.532,-6.74,-1.88,-4.98,R
,39991,66,0,1842,0.184,0.836,0.534,-8.11,-2.16,-4.93,R
,40001,66,0,1849,0.186,0.833,0.536,-8.49,-2.29,-5.21,R
,40011,65,0,1847,0.187,0.832,0.534,-7.77,-1.49,-5.24,R
,40021,67,0,1843,0.187,0.829,0.533,-6.11,-1.01,-5.09,R
,40031,67,0,1840,0.181,0.829,0.537,-5.13,0.21,-5.22,R
,40041,65,0,1842,0.182,0.839,0.538,-4.35,0.26,-5.13,R
,40051,64,0,1838,0.179,0.839,0.548,-4.28,0.38,-4.98,R
,40061,67,0,1840,0.182,0.841,0.538,-5.59,-0.17,-4.75,R
,40071,72,0,1840,0.181,0.841,0.539,-7.58,-1.33,-4.45,R
,40081,71,0,1844,0.180,0.837,0.538,-8.26,-1.99,-4.14,R
,40091,73,0,1843,0.177,0.831,0.554,-9.12,-2.34,-4.46,R
,40101,69,0,1840,0.178,0.827,0.557,-9.04,-3.70,-4.54,R
,40111,68,0,1840,0.178,0.818,0.555,-6.89,-3.81,-4.46,R
,40121,54,0,1840,0.183,0.819,0.548,-3.82,-2.29,-4.51,R
,40131,70,0,1840,0.194,0.825,0.542,-1.93,-2.07,-4.66,R
,40141,83,0,1840,0.190,0.833,0.533,-2.39,-2.49,-5.22,R
,40151,81,0,1840,0.187,0.841,0.530,-3.94,-2.81,-5.80,R
,40161,49,0,1846,0.182,0.840,0.521,-6.40,-2.69,-5.44,R
,40171,71,0,1843,0.179,0.835,0.531,-8.00,-2.83,-4.72,R
,40181,58,0,1840,0.174,0.823,0.535,-9.00,-3.16,-4.31,R
,40191,75,0,1842,0.176,0.816,0.542,-8.31,-2.80,-3.83,R
,40201,69,0,1840,0.187,0.820,0.543,-5.93,-2.22,-4.09,R
,40211,70,0,1841,0.198,0.819,0.538,-4.22,-1.97,-4.32,R
,40221,69,0,1842,0.198,0.831,0.536,-3.36,-1.71,-5.79,R
,40231,65,0,1841,0.192,0.841,0.527,-3.84,-1.74,-6.45,R
,40241,76,0,1840,0.180,0.851,0.531,-5.81,-1.33,-6.11,R
,40251,65,0,1843,0.171,0.856,0.538,-8.05,-0.52,-4.48,R
,40261,65,0,1844,0.171,0.847,0.536,-9.96,-1.76,-3.65,R
,40271,70,0,1847,0.170,0.837,0.548,-10.86,-2.89,-3.58,R
,40281,69,0,1840,0.171,0.823,0.552,-9.64,-4.10,-3.68,R
,40291,66,0,1840,0.188,0.825,0.558,-6.61,-3.68,-3.56,R
,40301,71,0,1840,0.193,0.824,0.550,-4.25,-3.21,-3.73,R
,40311,69,0,1841,0.195,0.830,0.551,-3.35,-3.73,-4.61,R
,40321,73,0,1839,0.195,0.832,0.544,-3.53,-4.19,-5.38,R
,40331,73,0,1838,0.187,0.836,0.538,-3.97,-3.01,-5.21,R
,40341,67,0,1838,0.182,0.834,0.550,-5.44,-3.90,-4.49,R
,40351,71,0,1836,0.175,0.835,0.554,-6.92,-3.96,-4.19,R
,40361,69,0,1840,0.183,0.831,0.547,-7.12,-5.67,-3.96,R
,40371,67,0,1839,0.187,0.823,0.558,-6.06,-6.89,-4.09,R
,40381,64,0,1840,0.191,0.819,0.559,-4.57,-7.36,-4.58,R
,40391,71,0,1839,0.194,0.820,0.565,-3.53,-6.86,-5.13,R
,40401,70,0,1840,0.192,0.822,0.549,-2.78,-6.08,-5.61,R
,40411,77,0,1840,0.191,0.823,0.546,-2.49,-5.26,-5.48,R
,40421,70,0,1840,0.183,0.833,0.554,-1.91,-5.20,-5.25,R
,40431,73,0,1843,0.177,0.834,0.537,-2.39,-6.10,-4.80,R
,40441,48,0,1844,0.192,0.840,0.536,-3.36,-7.90,-4.92,R
,40451,85,0,1843,0.191,0.841,0.531,-4.37,-9.85,-5.44,R
,40461,73,0,1840,0.192,0.833,0.520,-5.30,-11.12,-6.03,R
,40471,69,0,1839,0.193,0.824,0.516,-5.44,-10.34,-6.70,R
,40481,51,0,1840,0.194,0.817,0.510,-4.55,-8.60,-7.06,R
,40491,70,0,1838,0.183,0.821,0.500,-2.49,-6.02,-6.38,R
,40501,71,0,1840,0.189,0.822,0.499,-0.92,-3.59,-5.83,R
,40511,68,0,1840,0.189,0.836,0.490,0.13,-3.24,-5.79,R
,40521,69,0,1840,0.185,0.847,0.485,-2.64,-3.39,-6.35,R
,40531,74,0,1840,0.170,0.849,0.490,-5.71,-4.61,-6.60,R
,40541,70,0,1840,0.168,0.848,0.504,-7.76,-5.32,-5.44,R
,40551,69,0,1840,0.176,0.850,0.502,-8.29,-4.74,-4.12,R
,40561,75,0,1831,0.182,0.845,0.508,-9.01,-3.79,-3.12,R
,40571,70,0,1834,0.190,0.838,0.528,-10.43,-4.28,-2.14,R
,40581,71,0,1840,0.195,0.832,0.542,-9.30,-2.91,-1.67,R
,40591,75,0,1840,0.202,0.829,0.553,-6.86,-1.39,-1.25,R
,40601,70,0,1841,0.198,0.839,0.559,-6.28,-0.19,-1.76,R
,40611,66,0,1843,0.184,0.832,0.572,-6.43,-1.74,-2.63,R
,40621,71,0,1842,0.184,0.819,0.584,-5.93,-3.29,-3.16,R
,40631,66,0,1844,0.190,0.824,0.577,-5.15,-5.44,-3.51,R
,40641,69,0,1845,0.205,0.821,0.565,-4.11,-8.20,-3.99,R
,40651,69,0,1845,0.202,0.827,0.561,-4.34,-8.54,-4.38,R
,40661,68,0,1840,0.210,0.818,0.550,-5.04,-9.36,-4.61,R
,40671,67,0,1842,0.213,0.815,0.541,-4.69,-8.89,-4.99,R
,40681,85,0,1841,0.215,0.806,0.535,-3.56,-8.60,-5.06,R
,40691,74,0,1841,0.221,0.808,0.524,-3.55,-7.88,-5.97,R
,40701,82,0,1841,0.222,0.807,0.506,-3.07,-7.36,-7.42,R
,40711,64,0,1839,0.231,0.811,0.489,-2.31,-7.09,-8.87,R
,40721,75,0,1840,0.220,0.837,0.482,-4.20,-5.88,-8.69,R
,40731,74,0,1840,0.210,0.840,0.491,-6.83,-5.06,-8.66,R
,40741,65,0,1840,0.199,0.843,0.501,-9.38,-5.27,-8.77,R
,40751,72,0,1838,0.202,0.841,0.499,-10.00,-6.26,-8.84,R
,40761,73,0,1839,0.199,0.830,0.506,-9.87,-5.90,-9.85,R
,40771,73,0,1845,0.183,0.830,0.507,-8.66,-4.69,-10.51,R
,40781,67,0,1840,0.181,0.833,0.502,-5.79,-2.42,-9.65,R
,40791,75,0,1840,0.182,0.847,0.496,-3.16,-0.32,-8.75,R
,40801,67,0,1847,0.186,0.853,0.479,-3.65,1.52,-8.75,R
,40811,71,0,1840,0.178,0.860,0.479,-5.50,1.57,-8.64,R
,40821,67,0,1838,0.171,0.864,0.489,-7.76,1.66,-7.62,R
,40831,67,0,1840,0.168,0.860,0.493,-9.19,1.69,-6.61,R
,40841,73,0,1840,0.165,0.847,0.510,-10.77,2.68,-5.35,R
,40851,67,0,1840,0.171,0.839,0.516,-11.06,1.68,-4.37,R
,40861,72,0,1841,0.175,0.833,0.530,-10.08,1.43,-3.61,R
,40871,71,0,1847,0.184,0.830,0.535,-8.39,1.35,-3.82,R
,40881,74,0,1841,0.195,0.824,0.535,-6.66,1.48,-4.77,R
,40891,70,0,1840,0.198,0.824,0.534,-5.61,2.03,-5.22,R
,40901,75,0,1845,0.194,0.830,0.541,-5.15,3.03,-5.58,R
,40911,70,0,1843,0.186,0.833,0.546,-5.50,2.94,-5.80,R
,40921,64,0,1844,0.187,0.828,0.540,-5.56,2.94,-5.28,R
,40931,70,0,1840,0.198,0.830,0.538,-5.06,2.24,-5.30,R
,40941,71,0,1843,0.194,0.827,0.547,-5.24,1.55,-5.38,R
,40951,71,0,1840,0.194,0.828,0.542,-5.71,0.74,-5.48,R
,40961,78,0,1838,0.194,0.832,0.550,-6.49,0.18,-6.46,R
,40971,80,0,1838,0.197,0.832,0.549,-6.98,-0.61,-6.87,R
,40981,71,0,1839,0.196,0.817,0.537,-5.64,-1.27,-7.77,R
,40991,71,0,1840,0.195,0.824,0.540,-4.49,-1.01,-8.37,R
,41001,66,0,1840,0.193,0.828,0.548,-2.78,-0.92,-8.51,R
,41011,74,0,1840,0.189,0.834,0.535,-2.00,0.07,-8.58,R
,41021,75,0,1841,0.185,0.842,0.515,-3.03,0.79,-8.58,R
,41031,69,0,1841,0.178,0.851,0.520,-4.90,1.34,-8.14,R
,41041,71,0,1847,0.166,0.849,0.523,-5.18,0.47,-7.80,R
,41051,71,0,1841,0.171,0.852,0.517,-5.48,-0.61,-7.65,R
,41061,71,0,1845,0.178,0.847,0.511,-6.03,-1.41,-7.41,R
,41071,67,0,1840,0.177,0.850,0.518,-5.59,-0.63,-7.51,R
,41081,69,0,1846,0.179,0.850,0.515,-5.10,1.09,-7.30,R
,41091,67,0,1843,0.178,0.854,0.525,-5.19,2.71,-6.95,R
,41101,69,0,1845,0.164,0.850,0.523,-5.24,3.89,-6.29,R
,41111,74,0,1845,0.145,0.853,0.531,-5.71,3.39,-5.73,R
,41121,70,0,1843,0.140,0.851,0.531,-6.84,1.95,-4.98,R
,41131,66,0,1840,0.153,0.856,0.535,-6.49,0.94,-3.88,R
,41141,69,0,1840,0.167,0.859,0.535,-6.61,-0.26,-3.01,R
,41151,67,0,1841,0.174,0.852,0.537,-6.25,-2.39,-3.42,R
,41161,73,0,1839,0.178,0.858,0.532,-5.90,-2.54,-4.34,R
,41171,66,0,1840,0.182,0.851,0.524,-6.81,-2.11,-4.83,R
,41181,67,0,1838,0.177,0.847,0.529,-7.45,-0.57,-3.97,R
,41191,67,0,1838,0.171,0.837,0.530,-7.48,1.11,-2.52,R
,41201,66,0,1839,0.176,0.834,0.541,-6.97,2.03,-2.31,R
,41211,68,0,1840,0.180,0.825,0.529,-6.75,1.09,-2.51,R
,41221,73,0,1836,0.181,0.829,0.536,-6.45,-1.23,-3.25,R
,41231,67,0,1835,0.186,0.826,0.540,-6.10,-1.88,-4.48,R
,41241,54,0,1840,0.188,0.828,0.544,-6.49,-1.73,-4.99,R
,41251,71,0,1840,0.191,0.830,0.533,-6.28,-1.50,-4.69,R
,41261,86,0,1840,0.194,0.832,0.536,-6.10,-0.72,-4.28,R
,41271,80,0,1838,0.194,0.837,0.544,-7.58,-0.87,-4.48,R
,41281,74,0,1840,0.186,0.829,0.540,-8.35,-1.32,-5.06,R
,41291,64,0,1838,0.180,0.831,0.554,-8.34,-1.91,-5.39,R
,41301,83,0,1838,0.180,0.825,0.551,-8.29,-2.92,-5.54,R
,41311,71,0,1840,0.181,0.818,0.561,-7.41,-3.79,-5.48,R
,41321,70,0,1840,0.179,0.821,0.551,-5.88,-4.22,-6.03,R
,41331,68,0,1840,0.181,0.818,0.547,-5.06,-4.34,-6.23,R
,41341,67,0,1840,0.181,0.821,0.547,-4.71,-3.55,-6.19,R
,41351,69,0,1840,0.182,0.824,0.549,-4.00,-3.61,-6.61,R
,41361,69,0,1840,0.179,0.834,0.552,-3.77,-3.29,-6.46,R
,41371,73,0,1839,0.184,0.834,0.547,-3.55,-3.59,-6.81,R
,41381,70,0,1840,0.178,0.840,0.534,-4.46,-4.29,-6.74,R
,41391,65,0,1840,0.177,0.839,0.540,-5.44,-5.29,-6.54,R
,41401,67,0,1839,0.172,0.830,0.529,-6.02,-6.39,-6.51,R
,41411,75,0,1840,0.184,0.827,0.539,-5.97,-6.61,-6.99,R
,41421,68,0,1843,0.183,0.822,0.532,-3.27,-5.49,-7.39,R
,41431,70,0,1845,0.187,0.829,0.517,-1.44,-4.00,-7.64,R
,41441,64,0,1843,0.175,0.836,0.519,-2.02,-3.03,-8.09,R
,41451,65,0,1841,0.167,0.837,0.510,-0.74,-2.43,-7.96,R
,41461,73,0,1843,0.168,0.847,0.514,-0.66,-2.51,-7.51,R
,41471,75,0,1842,0.165,0.846,0.502,-1.38,-2.98,-7.27,R
,41481,59,0,1840,0.171,0.855,0.506,-2.71,-3.15,-7.30,R
,41491,74,0,1839,0.167,0.851,0.505,-2.37,-2.71,-7.03,R
,41501,74,0,1837,0.166,0.852,0.509,-2.95,-2.11,-6.40,R
,41511,71,0,1838,0.162,0.852,0.511,-3.36,-1.03,-6.35,R
,41521,68,0,1840,0.157,0.849,0.502,-2.95,0.22,-5.91,R
,41531,74,0,1840,0.165,0.845,0.505,-1.74,0.58,-5.87,R
,41541,74,0,1839,0.174,0.853,0.496,-1.71,0.80,-5.54,R
,41551,69,0,1841,0.176,0.861,0.498,-2.86,0.71,-5.48,R
,41561,66,0,1840,0.168,0.863,0.502,-5.48,0.90,-5.12,R
,41571,55,0,1843,0.170,0.860,0.510,-7.55,1.08,-4.43,R
,41581,69,0,1840,0.175,0.854,0.512,-8.43,0.58,-4.26,R
,41591,67,0,1840,0.162,0.842,0.536,-8.31,0.62,-4.22,R
,41601,67,0,1841,0.169,0.838,0.540,-7.07,-0.05,-4.38,R
,41611,69,0,1843,0.172,0.833,0.536,-5.06,1.32,-4.46,R
,41621,70,0,1843,0.169,0.846,0.530,-4.03,0.85,-4.38,R
,41631,70,0,1840,0.171,0.856,0.525,-4.63,0.51,-4.64,R
,41641,69,0,1845,0.172,0.857,0.531,-6.68,-0.92,-4.78,R
,41651,67,0,1840,0.164,0.854,0.530,-7.84,-1.55,-4.52,R
,41661,68,0,1843,0.169,0.846,0.538,-7.00,-1.93,-4.16,R
,41671,71,0,1840,0.172,0.841,0.545,-6.60,-2.36,-4.23,R
,41681,70,0,1840,0.170,0.834,0.542,-6.35,-2.46,-3.99,R
,41691,67,0,1842,0.172,0.829,0.532,-4.93,-2.31,-4.51,R
,41701,70,0,1840,0.171,0.835,0.530,-5.30,-2.94,-4.67,R
,41711,67,0,1842,0.178,0.835,0.539,-4.71,-3.09,-4.90,R
,41721,69,0,1840,0.175,0.841,0.536,-4.87,-3.18,-4.98,R
,41731,74,0,1840,0.173,0.841,0.518,-5.45,-3.45,-5.01,R
,41741,71,0,1840,0.173,0.838,0.526,-6.05,-3.49,-4.67,R
,41751,68,0,1849,0.173,0.836,0.517,-5.32,-3.58,-4.87,R
,41761,74,0,1840,0.173,0.838,0.521,-4.60,-3.45,-4.92,R
,41771,67,0,1843,0.184,0.839,0.522,-3.82,-3.58,-5.56,R
,41781,68,0,1842,0.181,0.840,0.515,-3.41,-2.61,-5.59,R
,41791,70,0,1842,0.175,0.844,0.511,-2.78,-1.73,-5.83,R
,41801,75,0,1840,0.172,0.850,0.511,-3.03,-0.80,-6.11,R
,41811,69,0,1840,0.168,0.857,0.509,-3.39,-0.63,-5.58,R
,41821,65,0,1839,0.162,0.854,0.500,-3.88,0.13,-5.47,R
,41831,69,0,1840,0.169,0.855,0.495,-5.24,-0.75,-5.18,R
,41841,73,0,1841,0.162,0.854,0.514,-5.90,-0.31,-4.89,R
,41851,67,0,1840,0.168,0.851,0.512,-6.35,-0.23,-4.35,R
,41861,71,0,1841,0.162,0.846,0.505,-6.81,-0.46,-4.16,R
,41871,74,0,1840,0.163,0.840,0.513,-6.20,-0.29,-3.77,R
,41881,66,0,1840,0.166,0.841,0.517,-4.63,-0.72,-3.68,R
,41891,76,0,1845,0.176,0.842,0.506,-4.92,0.38,-4.16,R
,41901,67,0,1843,0.178,0.843,0.517,-4.35,0.99,-4.60,R
,41911,69,0,1841,0.181,0.845,0.521,-4.40,1.06,-4.84,R
,41921,70,0,1840,0.177,0.840,0.526,-4.66,1.87,-5.15,R
,41931,76,0,1841,0.177,0.840,0.521,-5.35,1.45,-4.87,R
,41941,70,0,1846,0.171,0.841,0.524,-6.29,1.13,-5.18,R
,41951,66,0,1844,0.166,0.838,0.526,-5.68,0.38,-5.09,R
,41961,64,0,1847,0.169,0.833,0.528,-4.90,-0.00,-5.19,R
,41971,76,0,1841,0.173,0.835,0.527,-5.13,-0.78,-5.45,R
,41981,78,0,1842,0.174,0.843,0.524,-5.16,-1.70,-5.61,R
,41991,71,0,1841,0.173,0.846,0.521,-4.87,-0.63,-5.62,R
,42001,70,0,1842,0.176,0.846,0.533,-5.21,-1.27,-5.64,R
,42011,70,0,1844,0.170,0.844,0.530,-5.42,-1.45,-5.91,R
,42021,65,0,1840,0.169,0.842,0.533,-5.15,-2.07,-5.62,R
,42031,69,0,1842,0.173,0.843,0.540,-4.55,-1.87,-5.67,R
,42041,66,0,1844,0.171,0.842,0.531,-4.52,-1.65,-5.99,R
,42051,71,0,1840,0.172,0.845,0.531,-3.90,-2.19,-6.05,R
,42061,69,0,1841,0.164,0.843,0.529,-3.65,-2.11,-6.17,R
,42071,70,0,1840,0.164,0.850,0.528,-3.81,-2.87,-6.25,R
,42081,68,0,1840,0.162,0.851,0.533,-4.23,-2.28,-6.28,R
,42091,71,0,1840,0.164,0.844,0.522,-2.06,-3.07,-5.71,R
,42101,62,0,1841,0.173,0.850,0.505,-3.07,-3.76,-5.94,R
,42111,70,0,1840,0.171,0.848,0.508,-3.04,-4.05,-6.12,R
,42121,70,0,1840,0.177,0.852,0.513,-4.08,-3.59,-6.67,R
,42131,48,0,1840,0.166,0.846,0.500,-3.82,-2.22,-6.46,R
,42141,73,0,1846,0.167,0.845,0.501,-4.13,-1.70,-6.52,R
,42151,69,0,1843,0.165,0.844,0.503,-3.47,-1.15,-6.12,R
,42161,69,0,1842,0.161,0.857,0.500,-3.19,-1.24,-5.80,R
,42171,69,0,1840,0.162,0.861,0.506,-4.64,-1.26,-5.91,R
,42181,65,0,1843,0.156,0.867,0.500,-5.38,-2.77,-5.76,R
,42191,73,0,1842,0.154,0.875,0.519,-6.61,-3.24,-5.47,R
,42201,80,0,1843,0.154,0.870,0.516,-7.10,-4.08,-4.78,R
,42211,67,0,1840,0.147,0.864,0.514,-7.21,-5.03,-4.41,R
,42221,69,0,1838,0.155,0.853,0.518,-6.57,-4.98,-4.51,R
,42231,66,0,1839,0.164,0.848,0.512,-4.63,-3.76,-4.38,R
,42241,74,0,1840,0.177,0.847,0.506,-2.60,-2.37,-4.55,R
,42251,73,0,1839,0.171,0.844,0.500,-1.70,-1.47,-5.15,R
,42261,69,0,1840,0.168,0.850,0.491,-2.68,-0.87,-5.01,R
,42271,67,0,1842,0.174,0.852,0.498,-3.93,-0.23,-5.15,R
,42281,67,0,1840,0.173,0.847,0.499,-5.44,-0.98,-4.77,R
,42291,73,0,1841,0.156,0.849,0.492,-7.81,-2.34,-4.66,R
,42301,69,0,1841,0.151,0.842,0.502,-8.98,-3.71,-3.99,R
,42311,70,0,1839,0.165,0.843,0.507,-8.31,-3.38,-4.28,R
,42321,76,0,1838,0.179,0.848,0.506,-6.60,-2.83,-4.37,R
,42331,64,0,1838,0.180,0.843,0.509,-6.10,-2.69,-5.42,R
,42341,67,0,1838,0.172,0.849,0.512,-6.05,-2.46,-5.83,R
,42351,73,0,1839,0.165,0.845,0.500,-5.59,-1.71,-6.09,R
,42361,70,0,1839,0.163,0.841,0.502,-4.48,-0.48,-5.24,R
,42371,73,0,1840,0.161,0.851,0.505,-4.22,0.16,-4.40,R
,42381,66,0,1842,0.163,0.861,0.499,-5.38,-0.51,-4.32,R
,42391,71,0,1840,0.163,0.861,0.498,-7.36,-1.59,-4.83,R
,42401,64,0,1840,0.166,0.862,0.505,-9.42,-2.22,-4.92,R
,42411,80,0,1841,0.169,0.859,0.514,-9.65,-2.65,-4.77,R
,42421,67,0,1840,0.162,0.849,0.526,-8.84,-2.05,-4.29,R
,42431,70,0,1839,0.164,0.838,0.524,-6.78,-1.38,-4.28,R
,42441,67,0,1840,0.170,0.841,0.524,-4.61,-0.95,-4.77,R
,42451,77,0,1841,0.165,0.838,0.528,-2.80,-0.78,-5.18,R
,42461,67,0,1839,0.167,0.848,0.519,-2.86,-1.06,-5.27,R
,42471,73,0,1840,0.164,0.856,0.513,-3.36,-1.87,-4.81,R
,42481,73,0,1841,0.163,0.857,0.511,-4.54,-2.92,-4.41,R
,42491,68,0,1840,0.170,0.861,0.507,-6.75,-3.79,-4.40,R
,42501,69,0,1841,0.172,0.854,0.506,-8.40,-4.13,-4.64,R
,42511,76,0,1846,0.168,0.845,0.509,-8.06,-3.67,-4.72,R
,42521,74,0,1845,0.165,0.838,0.512,-7.36,-2.94,-4.77,R
,42531,69,0,1845,0.166,0.835,0.515,-5.96,-3.24,-4.96,R
,42541,67,0,1840,0.163,0.843,0.513,-3.79,-1.94,-5.16,R
,42551,71,0,1839,0.169,0.850,0.515,-2.52,-0.39,-5.15,R
,42561,70,0,1839,0.163,0.861,0.504,-3.41,-0.75,-4.63,R
,42571,68,0,1840,0.166,0.864,0.509,-4.48,-1.50,-4.69,R
,42581,66,0,1840,0.162,0.866,0.503,-5.94,-2.84,-4.55,R
,42591,71,0,1840,0.167,0.858,0.507,-6.87,-3.00,-4.67,R
,42601,68,0,1840,0.170,0.846,0.511,-6.14,-2.66,-5.06,R
,42611,64,0,1840,0.164,0.839,0.503,-4.35,-2.00,-5.44,R
,42621,70,0,1839,0.170,0.834,0.504,-5.04,-2.26,-5.47,R
,42631,67,0,1840,0.173,0.835,0.499,-3.16,-1.32,-5.70,R
,42641,54,0,1841,0.171,0.847,0.501,-2.83,-0.43,-5.61,R
,42651,71,0,1840,0.166,0.860,0.506,-4.57,0.29,-5.09,R
,42661,62,0,1840,0.167,0.866,0.507,-6.35,-0.23,-4.69,R
,42671,64,0,1841,0.159,0.873,0.510,-7.88,-0.92,-4.46,R
,42681,74,0,1840,0.158,0.864,0.519,-8.43,-2.45,-4.81,R
,42691,65,0,1841,0.156,0.853,0.521,-8.43,-2.77,-4.80,R
,42701,66,0,1839,0.165,0.842,0.528,-6.90,-2.89,-4.67,R
,42711,74,0,1837,0.168,0.841,0.517,-3.87,-2.13,-4.89,R
,42721,67,0,1839,0.170,0.842,0.507,-1.74,-1.68,-5.01,R
,42731,69,0,1838,0.165,0.855,0.498,-2.66,-1.24,-5.44,R
,42741,69,0,1839,0.165,0.858,0.501,-3.61,-0.39,-5.28,R
,42751,70,0,1840,0.168,0.860,0.496,-5.21,-0.68,-5.12,R
,42761,69,0,1840,0.161,0.860,0.500,-7.00,-1.50,-4.49,R
,42771,74,0,1840,0.163,0.852,0.503,-8.69,-3.24,-4.28,R
,42781,65,0,1838,0.167,0.842,0.510,-8.80,-3.26,-4.22,R
,42791,66,0,1834,0.177,0.842,0.519,-6.87,-2.98,-4.05,R
,42801,70,0,1840,0.173,0.833,0.505,-5.29,-2.14,-5.15,R
,42811,74,0,1840,0.177,0.833,0.501,-5.00,-2.46,-5.97,R
,42821,65,0,1840,0.169,0.839,0.497,-4.54,-1.94,-6.67,R
,42831,74,0,1840,0.167,0.842,0.497,-5.64,-1.24,-6.55,R
,42841,67,0,1840,0.165,0.848,0.490,-6.14,-1.33,-5.65,R
,42851,67,0,1840,0.164,0.848,0.495,-6.32,-1.30,-5.51,R
,42861,66,0,1839,0.168,0.852,0.484,-8.60,-2.45,-5.62,R
,42871,63,0,1833,0.172,0.851,0.499,-9.41,-1.32,-5.85,R
,42881,64,0,1836,0.166,0.845,0.501,-8.93,-1.10,-6.64,R
,42891,71,0,1838,0.164,0.843,0.506,-8.29,-0.81,-6.48,R
,42901,61,0,1836,0.161,0.839,0.507,-7.68,-0.97,-6.35,R
,42911,67,0,1840,0.159,0.843,0.503,-7.27,-0.42,-6.02,R
,42921,66,0,1838,0.158,0.848,0.507,-7.01,-0.77,-5.85,R
,42931,58,0,1837,0.162,0.847,0.503,-6.72,-1.09,-5.91,R
,42941,73,0,1837,0.166,0.852,0.501,-8.19,-1.45,-5.88,R
,42951,69,0,1840,0.173,0.850,0.499,-9.00,-2.05,-6.52,R
,42961,62,0,1837,0.168,0.857,0.490,-10.11,-2.81,-6.84,R
,42971,67,0,1840,0.176,0.845,0.487,-9.61,-1.78,-7.28,R
,42981,68,0,1841,0.187,0.837,0.491,-9.22,-0.43,-7.33,R
,42991,72,0,1834,0.182,0.849,0.492,-10.19,0.61,-7.96,R
,43001,70,0,1836,0.180,0.845,0.493,-12.66,0.96,-8.23,R
,43011,70,0,1838,0.173,0.842,0.498,-13.70,1.11,-7.73,R
,43021,69,0,1840,0.172,0.834,0.501,-13.94,0.55,-7.67,R
,43031,69,0,1842,0.166,0.830,0.508,-15.24,-0.02,-7.97,R
,43041,71,0,1847,0.169,0.833,0.512,-15.64,-0.75,-8.54,R
,43051,69,0,1847,0.172,0.831,0.526,-14.35,-0.39,-9.03,R
,43061,71,0,1844,0.167,0.836,0.525,-12.66,1.32,-9.32,R
,43071,69,0,1845,0.154,0.842,0.521,-12.89,1.71,-8.95,R
,43081,66,0,1845,0.150,0.843,0.522,-12.87,2.93,-8.77,R
,43091,69,0,1841,0.142,0.856,0.523,-13.97,2.00,-8.00,R
,43101,71,0,1841,0.147,0.858,0.527,-14.58,2.07,-7.65,R
,43111,67,0,1840,0.144,0.860,0.531,-16.13,0.67,-8.05,R
,43121,74,0,1840,0.144,0.853,0.524,-17.06,-1.13,-8.46,R
,43131,73,0,1843,0.146,0.859,0.532,-15.93,-2.19,-8.80,R
,43141,69,0,1840,0.152,0.857,0.522,-15.06,-2.32,-8.64,R
,43151,70,0,1842,0.147,0.858,0.536,-14.72,-0.92,-8.60,R
,43161,70,0,1840,0.137,0.863,0.538,-14.32,0.87,-8.00,R
,43171,69,0,1842,0.122,0.860,0.537,-14.58,2.10,-7.28,R
,43181,80,0,1840,0.121,0.870,0.527,-15.99,2.32,-6.66,R
,43191,80,0,1846,0.104,0.868,0.527,-15.77,2.13,-5.68,R
,43201,77,0,1841,0.112,0.876,0.513,-15.97,0.24,-4.16,R
,43211,80,0,1840,0.117,0.879,0.510,-17.76,-1.01,-3.50,R
,43221,70,0,1838,0.126,0.878,0.505,-20.52,-3.10,-3.22,R
,43231,37,0,1838,0.130,0.875,0.504,-22.02,-3.36,-2.99,R
,43241,69,0,1837,0.132,0.875,0.508,-23.81,-2.75,-2.22,R
,43251,75,0,1835,0.129,0.865,0.514,-26.58,-3.10,-1.58,R
,43261,74,0,1835,0.139,0.862,0.524,-28.42,-2.22,-0.51,R
,43271,74,0,1838,0.148,0.853,0.529,-28.26,-0.95,-0.05,R
,43281,74,0,1835,0.151,0.840,0.524,-28.48,-1.58,-0.08,R
,43291,71,0,1840,0.146,0.828,0.526,-29.30,-0.89,-1.28,R
,43301,70,0,1840,0.147,0.817,0.530,-30.40,-1.20,-0.90,R
,43311,71,0,1840,0.143,0.815,0.537,-29.87,0.58,-0.22,R
,43321,72,0,1837,0.138,0.802,0.531,-32.48,0.97,0.73,R
,43331,69,0,1837,0.125,0.796,0.527,-36.29,0.04,1.36,R
,43341,70,0,1840,0.134,0.790,0.522,-39.07,-1.09,2.68,R
,43351,68,0,1838,0.145,0.811,0.545,-43.00,-3.91,4.67,R
,43361,69,0,1839,0.144,0.811,0.552,-46.29,-6.74,6.15,R
,43371,66,0,1840,0.152,0.801,0.551,-46.57,-7.00,6.53,R
,43381,69,0,1839,0.178,0.796,0.565,-47.19,-8.08,5.31,R
,43391,67,0,1840,0.187,0.821,0.590,-50.23,-6.98,3.57,R
,43401,68,0,1834,0.174,0.827,0.619,-51.30,-6.08,2.32,R
,43411,66,0,1842,0.168,0.845,0.630,-50.39,-2.69,1.92,R
,43421,73,0,1841,0.156,0.856,0.673,-51.52,-0.42,2.62,R
,43431,67,0,1840,0.139,0.872,0.716,-53.13,1.61,3.91,R
,43441,71,0,1840,0.131,0.873,0.753,-54.98,5.58,4.88,R
,43451,67,0,1841,0.113,0.872,0.767,-55.79,-0.39,7.20,R
,43461,84,0,1837,0.080,0.865,0.800,-52.40,-0.61,8.17,R
,43471,74,0,1843,0.070,0.877,0.807,-53.26,-3.01,7.95,R
,43481,80,0,1838,0.072,0.864,0.802,-53.93,-9.35,7.31,R
,43491,64,0,1840,0.075,0.848,0.797,-52.90,-14.07,6.39,R
,43501,43,0,1840,0.085,0.813,0.786,-51.68,-20.86,5.63,R
,43511,55,0,1840,0.087,0.792,0.774,-49.10,-26.39,3.46,R
,43521,68,0,1833,0.096,0.765,0.755,-45.58,-29.76,2.81,R
,43531,69,0,1836,0.119,0.762,0.737,-41.42,-26.49,2.36,R
,43541,65,0,1835,0.137,0.750,0.717,-40.45,-24.16,2.36,R
,43551,68,0,1838,0.141,0.750,0.705,-41.97,-19.94,2.47,R
,43561,64,0,1837,0.126,0.754,0.699,-44.55,-14.07,3.68,R
,43571,69,0,1840,0.115,0.729,0.693,-48.35,-9.07,4.75,R
,43581,64,0,1845,0.105,0.694,0.697,-51.00,-7.01,4.32,R
,43591,66,0,1835,0.095,0.650,0.701,-51.99,-6.78,3.30,R
,43601,66,0,1835,0.078,0.620,0.730,-48.52,-4.26,1.66,R
,43611,65,0,1838,0.077,0.589,0.748,-40.80,-0.11,0.42,R
,43621,67,0,1838,0.080,0.570,0.749,-31.58,5.11,-2.19,R
,43631,66,0,1840,0.073,0.572,0.755,-21.91,10.29,-4.92,R
,43641,66,0,1840,0.082,0.579,0.742,-12.40,14.27,-8.02,R
,43651,64,0,1840,0.091,0.582,0.722,-3.68,16.76,-11.71,R
,43661,64,0,1840,0.087,0.609,0.719,1.29,19.17,-15.32,R
,43671,66,0,1840,0.073,0.637,0.707,4.68,25.98,-16.29,R
,43681,64,0,1840,0.070,0.658,0.700,4.90,31.92,-15.45,R
,43691,64,0,1839,0.043,0.675,0.715,1.02,35.43,-13.73,R
,43701,64,0,1835,0.026,0.667,0.724,-3.44,34.96,-12.23,R
,43711,65,0,1840,0.033,0.649,0.732,-7.64,30.03,-12.84,R
,43721,65,0,1840,0.043,0.638,0.763,-9.81,26.29,-14.48,R
,43731,65,0,1841,0.055,0.601,0.738,-10.51,18.27,-15.45,R
,43741,70,0,1837,0.068,0.603,0.751,-8.81,14.62,-17.85,R
,43751,58,0,1836,0.082,0.624,0.745,-8.03,14.15,-18.58,R
,43761,65,0,1840,0.082,0.643,0.740,-5.70,16.88,-19.06,R
,43771,67,0,1835,0.099,0.641,0.730,-6.84,18.76,-18.43,R
,43781,70,0,1836,0.114,0.658,0.718,-8.11,22.62,-17.18,R
,43791,74,0,1834,0.126,0.655,0.719,-7.97,28.50,-15.97,R
,43801,67,0,1834,0.125,0.644,0.721,-8.87,31.08,-14.77,R
,43811,64,0,1840,0.130,0.629,0.725,-9.47,33.31,-12.89,R
,43821,64,0,1835,0.138,0.618,0.725,-9.68,35.35,-10.66,R
,43831,64,0,1838,0.145,0.595,0.733,-12.61,35.28,-10.40,R
,43841,65,0,1836,0.141,0.585,0.726,-15.79,33.54,-11.93,R
,43851,65,0,1837,0.151,0.583,0.721,-17.48,32.65,-13.33,R
,43861,64,0,1839,0.155,0.594,0.733,-19.56,31.87,-13.83,R
,43871,64,0,1840,0.176,0.603,0.748,-23.16,31.92,-15.13,R
,43881,64,0,1843,0.143,0.604,0.741,-26.78,31.29,-14.40,R
,43891,64,0,1835,0.159,0.612,0.767,-29.88,31.00,-12.49,R
,43901,66,0,1834,0.149,0.611,0.784,-33.42,30.03,-11.18,R
,43911,64,0,1837,0.169,0.619,0.815,-39.74,26.48,-13.96,R
,43921,64,0,1840,0.140,0.594,0.834,-38.97,27.57,-14.43,R
,43931,65,0,1840,0.156,0.603,0.826,-35.27,26.99,-13.88,R
,43941,68,0,1829,0.145,0.599,0.849,-35.07,25.95,-16.00,R
,43951,66,0,1835,0.148,0.596,0.875,-35.84,25.64,-20.06,R
,43961,67,0,1836,0.135,0.587,0.890,-36.08,26.74,-24.06,R
,43971,64,0,1839,0.107,0.585,0.891,-33.15,26.77,-23.62,R
,43981,67,0,1834,0.108,0.600,0.890,-30.58,29.48,-23.88,R
,43991,65,0,1832,0.088,0.605,0.895,-28.23,28.90,-25.38,R
,44001,79,0,1830,0.087,0.602,0.900,-28.35,26.32,-27.09,R
,44011,72,0,1835,0.080,0.605,0.892,-30.84,18.21,-29.59,R
,44021,71,0,1835,0.074,0.595,0.865,-32.00,12.53,-29.68,R
,44031,67,0,1834,0.103,0.593,0.863,-31.45,9.60,-31.30,R
,44041,71,0,1835,0.110,0.591,0.875,-32.43,8.07,-31.59,R
,44051,75,0,1840,0.115,0.589,0.872,-32.16,7.89,-31.06,R
,44061,69,0,1839,0.119,0.577,0.864,-33.70,6.79,-31.96,R
,44071,77,0,1837,0.106,0.574,0.868,-33.38,4.56,-33.10,R
,44081,79,0,1840,0.106,0.600,0.912,-34.39,0.24,-34.03,R
,44091,72,0,1837,0.095,0.573,0.873,-33.82,-0.52,-35.62,R
,44101,71,0,1835,0.081,0.593,0.876,-34.68,-3.96,-35.10,R
,44111,70,0,1838,0.094,0.591,0.890,-34.68,-6.19,-36.98,R
,44121,70,0,1839,0.074,0.602,0.906,-35.38,-6.61,-38.25,R
,44131,68,0,1837,0.056,0.578,0.890,-33.10,-4.39,-35.67,R
,44141,69,0,1839,0.054,0.617,0.900,-31.77,-6.89,-35.16,R
,44151,71,0,1840,0.018,0.611,0.918,-28.58,-6.05,-32.95,R
,44161,67,0,1835,0.058,0.647,0.922,-33.62,-10.80,-34.54,R
,44171,68,0,1836,0.005,0.644,0.919,-36.75,-14.95,-33.79,R
,44181,65,0,1834,-0.024,0.654,0.906,-32.42,-14.20,-29.36,R
,44191,65,0,1835,-0.020,0.656,0.924,-35.13,-15.56,-28.75,R
,44201,71,0,1831,-0.042,0.650,0.931,-34.32,-19.62,-25.94,R
,44211,64,0,1831,-0.048,0.650,0.931,-31.65,-21.76,-23.24,R
,44221,65,0,1835,-0.054,0.638,0.911,-29.33,-23.32,-21.50,R
,44231,65,0,1838,-0.054,0.636,0.893,-28.23,-24.37,-20.12,R
,44241,61,0,1839,-0.062,0.621,0.881,-26.60,-23.59,-19.16,R
,44251,69,0,1837,-0.059,0.611,0.853,-26.26,-25.10,-17.33,R
,44261,71,0,1839,-0.068,0.589,0.837,-25.61,-23.16,-15.07,R
,44271,64,0,1840,-0.008,0.607,0.787,-30.75,-27.96,-15.67,R
,44281,67,0,1837,-0.065,0.567,0.784,-28.28,-23.33,-13.94,R
,44291,74,0,1839,-0.042,0.543,0.794,-28.98,-18.92,-12.84,R
,44301,64,0,1839,-0.048,0.514,0.790,-27.88,-16.08,-11.09,R
,44311,37,0,1837,-0.033,0.502,0.785,-27.22,-13.79,-11.16,R
,44321,71,0,1836,-0.035,0.486,0.793,-25.48,-12.60,-11.85,R
,44331,70,0,1835,-0.022,0.485,0.781,-22.60,-9.50,-11.01,R
,44341,66,0,1840,-0.012,0.492,0.771,-21.38,-5.84,-11.10,R
,44351,65,0,1836,-0.010,0.496,0.764,-22.58,-2.55,-10.32,R
,44361,60,0,1838,-0.013,0.503,0.767,-24.13,-0.49,-8.90,R
,44371,71,0,1840,-0.009,0.498,0.781,-26.10,-0.55,-8.32,R
,44381,67,0,1839,-0.006,0.489,0.786,-27.82,-1.70,-8.93,R
,44391,65,0,1836,-0.016,0.477,0.813,-26.66,-2.89,-9.22,R
,44401,69,0,1831,-0.005,0.467,0.797,-28.68,-2.52,-9.68,R
,44411,64,0,1837,-0.023,0.458,0.811,-28.35,0.71,-10.61,R
,44421,64,0,1839,-0.017,0.464,0.826,-23.77,5.19,-9.53,R
,44431,64,0,1840,-0.008,0.476,0.834,-22.40,6.71,-9.41,R
,44441,65,0,1840,-0.025,0.487,0.844,-21.88,9.64,-9.21,R
,44451,64,0,1841,-0.037,0.492,0.852,-21.47,12.64,-9.22,R
,44461,65,0,1838,-0.046,0.500,0.869,-22.81,14.24,-8.25,R
,44471,65,0,1840,-0.060,0.494,0.891,-23.91,15.66,-6.26,R
,44481,67,0,1840,-0.073,0.482,0.897,-23.42,15.60,-2.72,R
,44491,68,0,1840,-0.068,0.467,0.912,-23.64,15.02,-0.38,R
,44501,66,0,1837,-0.062,0.450,0.927,-24.77,13.72,0.62,R
,44511,65,0,1839,-0.054,0.438,0.919,-25.07,12.41,1.25,R
,44521,67,0,1836,-0.029,0.417,0.928,-24.05,10.70,1.08,R
,44531,64,0,1840,-0.029,0.422,0.907,-26.54,13.97,0.62,R
,44541,66,0,1838,-0.018,0.406,0.955,-25.61,14.91,0.07,R
,44551,65,0,1837,-0.016,0.416,0.957,-22.60,15.40,0.82,R
,44561,67,0,1835,-0.025,0.417,0.956,-24.28,15.37,0.15,R
,44571,65,0,1840,-0.017,0.408,0.973,-24.61,13.06,-0.12,R
,44581,42,0,1838,-0.012,0.405,0.988,-24.11,11.78,0.44,R
,44591,73,0,1839,-0.016,0.420,0.991,-24.22,10.32,0.62,R
,44601,64,0,1841,-0.009,0.421,1.010,-23.64,7.83,-0.22,R
,44611,74,0,1837,0.001,0.413,1.032,-22.29,6.32,-1.30,R
,44621,71,0,1834,-0.019,0.430,1.033,-19.29,5.16,-0.38,R
,44631,68,0,1835,-0.057,0.434,1.000,-17.74,4.13,1.07,R
,44641,67,0,1838,-0.053,0.426,1.027,-19.21,-0.19,1.07,R
,44651,74,0,1840,-0.074,0.398,1.038,-17.67,-4.42,3.89,R
,44661,70,0,1839,-0.057,0.382,0.987,-19.21,-11.16,1.68,R
,44671,68,0,1838,-0.036,0.372,0.976,-17.26,-10.16,2.20,R
,44681,67,0,1840,-0.023,0.361,0.965,-16.00,-11.74,2.26,R
,44691,70,0,1840,-0.005,0.358,0.955,-15.00,-11.29,1.13,R
,44701,64,0,1837,-0.012,0.342,0.925,-12.89,-10.51,0.59,R
,44711,68,0,1837,0.010,0.358,0.914,-12.68,-9.96,-0.49,R
,44721,69,0,1840,-0.001,0.344,0.910,-12.29,-7.12,-1.67,R
,44731,64,0,1839,0.001,0.359,0.915,-11.50,-6.17,-2.03,R
,44741,65,0,1837,0.006,0.353,0.901,-11.97,-8.95,-3.45,R
,44751,67,0,1835,0.007,0.351,0.893,-12.37,-10.16,-4.14,R
,44761,66,0,1836,0.017,0.358,0.890,-12.08,-9.58,-4.26,R
,44771,67,0,1831,0.013,0.369,0.893,-11.39,-7.65,-4.89,R
,44781,65,0,1835,0.009,0.372,0.899,-13.45,-7.24,-5.27,R
,44791,66,0,1837,0.001,0.371,0.901,-14.54,-6.52,-4.99,R
,44801,66,0,1834,-0.004,0.366,0.908,-15.03,-7.79,-5.01,R
,44811,64,0,1839,-0.008,0.359,0.920,-15.03,-8.89,-6.19,R
,44821,66,0,1837,-0.006,0.344,0.919,-14.26,-10.23,-7.88,R
,44831,67,0,1834,0.004,0.338,0.901,-11.77,-11.07,-9.47,R
,44841,67,0,1834,0.015,0.357,0.890,-8.54,-8.68,-9.94,R
,44851,67,0,1839,0.020,0.369,0.877,-5.74,-4.71,-10.34,R
,44861,64,0,1835,0.011,0.386,0.871,-6.02,-1.38,-9.73,R
,44871,39,0,1838,0.006,0.395,0.865,-7.59,-0.16,-9.13,R
,44881,69,0,1834,0.003,0.415,0.876,-9.56,1.19,-8.58,R
,44891,74,0,1831,-0.011,0.416,0.882,-11.81,2.59,-7.85,R
,44901,65,0,1838,-0.032,0.424,0.909,-13.67,2.64,-6.11,R
,44911,66,0,1837,-0.035,0.429,0.934,-16.63,0.74,-4.34,R
,44921,75,0,1835,-0.042,0.427,0.947,-17.67,-1.59,-3.47,R
,44931,75,0,1836,-0.044,0.424,0.980,-16.81,-2.29,-3.47,R
,44941,68,0,1837,-0.032,0.430,0.948,-18.43,-6.83,-4.84,R
,44951,66,0,1838,-0.105,0.430,1.014,-10.72,2.73,-3.27,R
,44961,67,0,1833,-0.064,0.449,1.064,-7.67,3.19,-0.99,R
,44971,64,0,1830,-0.042,0.443,1.032,-9.26,-3.38,0.53,R
,44981,64,0,1835,-0.068,0.430,1.001,-6.57,-0.17,3.16,R
,44991,67,0,1831,-0.056,0.431,1.001,-5.04,-0.84,5.39,R
,45001,67,0,1837,-0.050,0.422,1.016,-6.54,-2.37,5.86,R
,45011,70,0,1838,-0.038,0.409,1.000,-8.45,-4.86,5.37,R
,45021,69,0,1837,-0.056,0.383,1.007,-7.59,-6.34,5.20,R
,45031,65,0,1837,-0.028,0.373,0.993,-3.42,-8.39,6.20,R
,45041,69,0,1840,-0.007,0.365,0.981,-2.55,-9.06,4.49,R
,45051,67,0,1837,0.000,0.357,0.983,-3.00,-10.36,2.62,R
,45061,71,0,1838,-0.001,0.353,0.961,-2.29,-11.10,2.67,R
,45071,67,0,1839,0.005,0.345,0.962,-1.87,-9.96,3.65,R
,45081,67,0,1839,0.030,0.342,0.945,-2.34,-10.37,3.84,R
,45091,67,0,1839,0.021,0.337,0.943,-1.99,-9.42,3.77,R
,45101,64,0,1839,0.027,0.333,0.929,-1.65,-10.10,3.86,R
,45111,69,0,1838,0.034,0.341,0.908,-1.39,-10.32,3.46,R
,45121,67,0,1840,0.032,0.340,0.914,-1.42,-10.91,2.35,R
,45131,66,0,1837,0.035,0.344,0.897,-1.85,-12.08,2.20,R
,45141,80,0,1831,0.042,0.354,0.886,-1.59,-11.44,2.30,R
,45151,77,0,1831,0.042,0.365,0.886,-2.10,-11.23,1.86,R
,45161,63,0,1829,0.033,0.375,0.900,-2.25,-9.16,2.32,R
,45171,71,0,1834,0.046,0.381,0.903,-4.58,-10.23,1.25,R
,45181,67,0,1837,0.036,0.381,0.922,-5.36,-12.36,0.70,R
,45191,65,0,1835,0.037,0.375,0.920,-4.63,-11.41,-0.72,R
,45201,48,0,1840,0.032,0.362,0.935,-6.89,-13.58,-2.98,R
,45211,80,0,1834,0.014,0.372,0.946,-6.92,-14.11,-2.14,R
,45221,64,0,1838,-0.015,0.381,0.958,-1.82,-10.84,0.67,R
,45231,69,0,1838,-0.015,0.389,0.968,-0.28,-8.95,1.98,R
,45241,64,0,1840,-0.018,0.396,0.965,-0.35,-10.91,1.14,R
,45251,68,0,1840,0.006,0.388,0.965,0.71,-12.66,-1.44,R
,45261,74,0,1838,0.008,0.400,0.955,3.55,-15.33,-5.48,R
,45271,71,0,1838,0.028,0.378,0.952,5.63,-19.06,-10.28,R
,45281,71,0,1839,0.037,0.401,0.940,7.80,-22.32,-13.33,R
,45291,67,0,1840,0.057,0.419,0.940,10.38,-21.85,-14.26,R
,45301,67,0,1840,0.056,0.433,0.937,12.97,-18.32,-13.64,R
,45311,71,0,1840,0.060,0.456,0.930,13.45,-15.10,-11.74,R
,45321,66,0,1840,0.056,0.485,0.940,13.22,-11.23,-9.12,R
,45331,65,0,1840,0.034,0.488,0.932,12.58,-8.81,-5.53,R
,45341,71,0,1840,0.024,0.499,0.947,9.26,-9.47,-3.41,R
,45351,65,0,1840,0.018,0.500,0.963,6.62,-12.86,-1.91,R
,45361,73,0,1839,0.029,0.491,0.960,5.75,-16.39,-1.56,R
,45371,64,0,1835,0.033,0.490,0.971,5.66,-21.65,-1.68,R
,45381,67,0,1841,0.057,0.469,0.958,6.64,-26.08,-2.98,R
,45391,64,0,1841,0.070,0.458,0.935,10.65,-26.58,-3.04,R
,45401,71,0,1840,0.071,0.466,0.917,13.45,-23.97,-1.44,R
,45411,64,0,1840,0.074,0.442,0.959,26.53,-11.03,5.62,R
,45421,71,0,1840,0.116,0.494,0.864,17.89,-18.07,9.08,R
,45431,74,0,1840,0.054,0.522,0.772,26.10,3.60,12.17,R
,45441,69,0,1840,0.062,0.556,0.856,26.44,6.45,16.62,R
,45451,64,0,1839,0.056,0.577,0.867,22.99,0.03,17.66,R
,45461,67,0,1839,0.031,0.583,0.832,19.69,-3.50,18.50,R
,45471,57,0,1837,0.039,0.589,0.806,17.90,-8.65,20.06,R
,45481,66,0,1840,0.052,0.606,0.825,16.74,-10.81,21.95,R
,45491,70,0,1840,0.065,0.665,0.820,15.32,-7.33,22.78,R
,45501,69,0,1840,0.035,0.650,0.863,14.06,-6.07,27.66,R
,45511,65,0,1838,0.066,0.618,0.817,15.36,-2.78,33.66,R
,45521,65,0,1840,0.034,0.638,0.864,20.48,4.30,38.72,R
,45531,64,0,1840,0.035,0.646,0.876,24.45,7.37,44.62,R
,45541,65,0,1839,0.035,0.668,0.873,23.25,7.28,46.75,R
,45551,64,0,1834,0.023,0.671,0.884,23.08,6.67,48.42,R
,45561,65,0,1833,0.001,0.676,0.903,25.03,5.69,51.10,R
,45571,66,0,1840,0.023,0.667,0.890,26.19,2.04,54.91,R
,45581,65,0,1842,0.031,0.664,0.896,22.50,-2.46,56.96,R
,45591,64,0,1841,0.033,0.647,0.891,23.83,-2.22,58.87,R
,45601,65,0,1839,0.045,0.642,0.890,27.26,-0.80,60.96,R
,45611,69,0,1837,0.063,0.625,0.884,28.94,-0.55,61.45,R
,45621,64,0,1839,0.061,0.619,0.884,29.94,1.31,61.78,R
,45631,68,0,1843,0.070,0.610,0.881,32.68,4.29,64.55,R
,45641,65,0,1843,0.087,0.607,0.873,34.04,7.66,66.93,R
,45651,74,0,1840,0.084,0.595,0.852,33.52,10.59,68.82,R
,45661,65,0,1843,0.084,0.584,0.852,35.48,13.23,71.33,R
,45671,66,0,1842,0.096,0.573,0.848,36.79,15.37,72.96,R
,45681,64,0,1841,0.092,0.570,0.822,32.70,15.95,74.91,R
,45691,70,0,1840,0.090,0.566,0.836,27.43,16.45,78.20,R
,45701,74,0,1840,0.081,0.569,0.843,21.22,16.29,81.05,R
,45711,73,0,1838,0.079,0.549,0.843,15.95,15.51,82.68,R
,45721,67,0,1837,0.084,0.530,0.854,13.43,12.79,82.44,R
,45731,69,0,1841,0.091,0.493,0.851,12.18,9.69,80.23,R
,45741,66,0,1841,0.104,0.457,0.843,12.58,6.99,76.78,R
,45751,64,0,1842,0.118,0.436,0.831,15.22,7.02,74.12,R
,45761,67,0,1840,0.130,0.431,0.807,20.21,9.25,71.17,R
,45771,66,0,1843,0.136,0.430,0.779,22.47,13.03,69.23,R
,45781,73,0,1840,0.142,0.416,0.749,24.81,17.51,67.48,R
,45791,65,0,1841,0.149,0.420,0.728,23.05,21.08,66.65,R
,45801,68,0,1840,0.154,0.416,0.674,21.26,24.48,64.65,R
,45811,65,0,1835,0.168,0.402,0.642,17.61,26.68,62.20,R
,45821,63,0,1839,0.170,0.403,0.602,13.34,30.82,59.33,R
,45831,64,0,1838,0.159,0.397,0.575,7.92,35.35,56.85,R
,45841,69,0,1837,0.166,0.407,0.583,2.91,42.13,55.77,R
,45851,64,0,1835,0.160,0.414,0.591,-4.71,51.08,56.33,R
,45861,64,0,1840,0.147,0.433,0.615,-12.37,62.71,56.84,R
,45871,65,0,1840,0.134,0.400,0.636,-20.55,71.48,56.84,R
,45881,59,0,1839,0.121,0.395,0.666,-29.47,79.48,56.82,R
,45891,64,0,1839,0.105,0.398,0.717,-33.07,89.81,56.79,R
,45901,64,0,1840,0.076,0.384,0.767,-36.29,97.14,54.79,R
,45911,63,0,1838,0.068,0.383,0.788,-38.06,104.24,49.57,R
,45921,64,0,1840,0.015,0.363,0.851,-41.84,104.79,43.17,R
,45931,64,0,1835,0.003,0.360,0.926,-49.04,97.52,38.41,R
,45941,55,0,1839,-0.049,0.355,0.991,-49.42,88.19,35.60,R
,45951,64,0,1839,-0.073,0.336,1.020,-41.26,78.48,34.44,R
,45961,64,0,1835,-0.068,0.323,1.038,-34.03,66.73,33.74,R
,45971,41,0,1840,-0.038,0.326,1.058,-22.54,58.38,32.47,R
,45981,80,0,1840,-0.016,0.335,1.046,-15.45,49.28,28.78,R
,45991,67,0,1839,0.006,0.348,1.035,-8.11,45.46,23.81,R
,46001,65,0,1838,0.025,0.366,1.001,-3.16,43.13,20.21,R
,46011,65,0,1837,0.035,0.370,0.969,-2.39,43.32,19.80,R
,46021,60,0,1840,0.036,0.373,0.971,-2.06,47.32,20.73,R
,46031,59,0,1840,0.052,0.380,0.965,-5.56,48.90,21.37,R
,46041,69,0,1839,0.055,0.382,0.959,-7.48,47.57,20.97,R
,46051,66,0,1840,0.069,0.381,0.932,-9.44,43.57,18.46,R
,46061,64,0,1840,0.087,0.383,0.924,-13.61,36.91,14.82,R
,46071,61,0,1840,0.098,0.366,0.925,-16.42,28.56,10.73,R
,46081,61,0,1840,0.098,0.356,0.923,-16.46,21.81,7.72,R
,46091,64,0,1839,0.116,0.372,0.911,-12.92,19.29,5.62,R
,46101,62,0,1838,0.149,0.375,0.914,-15.18,19.29,2.61,R
,46111,62,0,1830,0.140,0.374,0.912,-19.68,20.99,0.82,R
,46121,65,0,1834,0.103,0.389,0.947,-20.43,24.80,1.49,R
,46131,65,0,1833,0.097,0.385,0.952,-23.71,26.50,2.39,R
,46141,66,0,1842,0.085,0.397,0.980,-27.19,25.90,3.55,R
,46151,65,0,1840,0.076,0.383,1.010,-27.16,22.59,3.17,R
,46161,64,0,1838,0.060,0.378,0.998,-18.39,19.66,0.46,R
,46171,64,0,1837,0.099,0.350,0.992,-17.12,9.39,-5.35,R
,46181,66,0,1840,0.090,0.353,0.977,-15.04,1.03,-12.87,R
,46191,66,0,1840,0.077,0.379,0.984,-10.28,-2.92,-16.61,R
,46201,64,0,1840,0.090,0.376,0.983,-5.32,-2.71,-18.54,R
,46211,64,0,1839,0.102,0.396,0.965,-4.61,0.44,-19.51,R
,46221,64,0,1837,0.109,0.408,0.957,-7.41,3.52,-20.05,R
,46231,65,0,1840,0.092,0.427,0.951,-8.81,7.45,-19.27,R
,46241,46,0,1840,0.083,0.429,0.966,-9.29,11.86,-17.82,R
,46251,72,0,1837,0.076,0.426,0.972,-10.42,14.99,-17.06,R
,46261,64,0,1840,0.066,0.442,0.982,-11.76,16.18,-16.89,R
,46271,74,0,1841,0.051,0.448,0.993,-13.81,14.74,-16.81,R
,46281,68,0,1843,0.020,0.445,1.008,-16.51,10.94,-18.11,R
,46291,65,0,1843,0.011,0.425,1.025,-20.48,1.32,-19.61,R
,46301,65,0,1840,0.012,0.419,1.036,-16.25,-7.12,-19.44,R
,46311,70,0,1840,0.033,0.414,1.041,-8.10,-11.88,-18.81,R
,46321,66,0,1840,0.049,0.419,1.014,-2.84,-14.77,-19.91,R
,46331,64,0,1844,0.069,0.428,1.020,2.99,-12.11,-19.56,R
,46341,64,0,1840,0.073,0.452,0.998,6.24,-8.74,-20.14,R
,46351,62,0,1843,0.070,0.483,0.977,8.71,-4.89,-19.56,R
,46361,65,0,1841,0.062,0.490,0.954,13.61,1.71,-18.37,R
,46371,64,0,1843,0.063,0.510,0.928,12.99,2.90,-16.83,R
,46381,66,0,1843,0.037,0.520,0.935,11.72,4.47,-15.06,R
,46391,66,0,1837,0.107,0.500,0.947,5.89,-0.89,-12.05,R
,46401,64,0,1841,0.024,0.517,0.906,6.50,-0.69,-9.94,R
,46411,63,0,1841,0.036,0.508,0.908,5.46,-3.41,-7.47,R
,46421,62,0,1845,0.062,0.496,0.932,6.50,-2.65,-5.70,R
,46431,64,0,1840,0.074,0.494,0.935,5.84,-4.43,-5.21,R
,46441,64,0,1840,0.062,0.504,0.922,3.11,-6.75,-4.81,R
,46451,63,0,1840,0.055,0.491,0.897,8.35,-4.54,-4.46,R
,46461,70,0,1840,0.053,0.491,0.905,13.20,0.50,-3.91,R
,46471,69,0,1839,0.055,0.499,0.908,14.71,4.56,-4.52,R
,46481,69,0,1839,0.040,0.501,0.914,16.44,8.07,-4.98,R
,46491,71,0,1840,0.023,0.502,0.911,17.75,9.57,-3.99,R
,46501,73,0,1839,0.030,0.486,0.894,17.29,9.28,-2.78,R
,46511,69,0,1837,0.030,0.490,0.899,17.19,8.51,-1.47,R
,46521,74,0,1838,0.020,0.481,0.890,17.65,9.43,-0.43,R
,46531,70,0,1838,0.029,0.479,0.891,18.00,11.00,0.33,R
,46541,69,0,1838,0.005,0.500,0.893,16.12,11.97,1.77,R
,46551,70,0,1840,-0.009,0.498,0.884,13.77,12.39,2.64,R
,46561,76,0,1839,-0.039,0.515,0.881,7.77,9.89,4.82,R
,46571,55,0,1835,-0.047,0.518,0.891,0.44,5.19,5.83,R
,46581,43,0,1835,-0.027,0.506,0.886,-3.97,-1.15,5.04,R
,46591,70,0,1840,-0.012,0.491,0.888,-9.32,-7.04,3.34,R
,46601,70,0,1838,-0.007,0.477,0.893,-12.31,-10.37,3.14,R
,46611,69,0,1837,-0.016,0.479,0.892,-12.80,-9.82,4.62,R
,46621,75,0,1840,-0.009,0.474,0.904,-13.26,-6.61,6.53,R
,46631,67,0,1837,-0.006,0.474,0.898,-14.75,-4.31,7.86,R
,46641,67,0,1839,-0.004,0.466,0.890,-14.78,-2.80,9.23,R
,46651,71,0,1842,0.007,0.452,0.890,-14.87,-1.62,9.43,R
,46661,66,0,1842,0.001,0.461,0.903,-14.89,-2.20,9.77,R
,46671,65,0,1840,-0.002,0.456,0.902,-14.60,-4.05,8.39,R
,46681,67,0,1840,0.006,0.456,0.908,-14.13,-7.52,6.35,R
,46691,69,0,1840,0.022,0.453,0.906,-14.75,-12.52,4.13,R
,46701,70,0,1840,0.031,0.457,0.916,-15.33,-15.36,2.82,R
,46711,70,0,1838,0.044,0.449,0.923,-15.38,-16.14,1.77,R
,46721,73,0,1840,0.054,0.449,0.896,-14.55,-13.61,2.55,R
,46731,75,0,1840,0.060,0.459,0.903,-17.07,-12.74,3.62,R
,46741,71,0,1839,0.036,0.487,0.882,-20.72,-10.81,5.23,R
,46751,70,0,1840,0.026,0.510,0.884,-27.44,-11.91,7.25,R
,46761,66,0,1840,0.038,0.497,0.891,-33.68,-15.35,8.72,R
,46771,70,0,1841,0.059,0.472,0.896,-37.42,-20.92,9.62,R
,46781,66,0,1842,0.073,0.457,0.910,-38.26,-23.52,9.14,R
,46791,71,0,1840,0.086,0.429,0.936,-35.26,-23.10,7.71,R
,46801,73,0,1838,0.082,0.417,0.938,-30.32,-19.58,5.89,R
,46811,79,0,1840,0.084,0.421,0.951,-25.94,-15.09,5.13,R
,46821,70,0,1835,0.068,0.420,0.959,-22.23,-10.46,4.91,R
,46831,74,0,1838,0.059,0.417,0.969,-17.85,-7.27,4.68,R
,46841,66,0,1835,0.029,0.440,0.943,-14.28,-6.43,4.68,R
,46851,63,0,1833,0.040,0.441,0.920,-11.47,-4.98,4.82,R
,46861,26,0,1840,0.050,0.436,0.897,-14.48,-9.70,2.50,R
,46871,32,0,1840,0.068,0.452,0.887,-17.07,-14.78,0.70,R
,46881,19,0,1842,0.068,0.458,0.875,-17.77,-15.41,0.33,R
,46891,22,0,1843,0.065,0.452,0.880,-19.03,-14.46,1.13,R
,46901,30,0,1842,0.059,0.468,0.876,-21.03,-12.45,1.63,R
,46911,9,0,1846,0.049,0.460,0.906,-24.97,-12.11,3.95,R
,46921,0,0,1842,0.043,0.464,0.924,-26.11,-10.91,6.84,R
,46931,0,0,1838,0.055,0.443,0.936,-23.91,-11.32,6.58,R
,46941,0,0,1840,0.057,0.437,0.959,-24.39,-13.81,5.88,R
,46951,0,0,1838,0.065,0.418,0.966,-21.81,-15.24,5.77,R
,46961,0,0,1840,0.091,0.410,0.966,-18.75,-16.10,4.84,R
,46971,0,0,1840,0.090,0.396,0.944,-16.66,-16.14,2.26,R
,46981,19,0,1841,0.093,0.383,0.933,-13.74,-15.12,0.39,R
,46991,66,0,1840,0.103,0.377,0.922,-11.27,-13.38,-0.11,R
,47001,73,0,1840,0.119,0.378,0.941,-10.90,-11.42,-1.85,R
,47011,71,0,1840,0.094,0.387,0.917,-11.53,-10.94,-5.65,R
,47021,63,0,1843,0.084,0.396,0.896,-16.26,-15.21,-8.72,R
,47031,49,0,1843,0.081,0.398,0.890,-18.43,-18.23,-8.69,R
,47041,52,0,1843,0.085,0.386,0.902,-21.87,-20.36,-7.67,R
,47051,16,0,1845,0.117,0.365,0.903,-23.55,-21.30,-7.16,R
,47061,0,0,1846,0.155,0.340,0.908,-20.54,-19.01,-7.35,R
,47071,0,0,1847,0.151,0.332,0.934,-13.90,-11.18,-6.40,R
,47081,0,0,1841,0.140,0.360,0.928,-10.78,-3.16,-5.56,R
,47091,0,0,1840,0.119,0.374,0.932,-7.41,4.24,-3.74,R
,47101,0,0,1840,0.117,0.379,0.940,-9.79,9.71,-2.06,R
,47111,0,0,1838,0.122,0.380,0.953,-8.77,11.19,-3.15,R
,47121,0,0,1840,0.110,0.368,0.968,-10.29,8.88,-5.10,R
,47131,0,0,1838,0.080,0.380,0.972,-9.91,6.58,-5.41,R
,47141,0,0,1837,0.060,0.399,0.976,-10.00,4.35,-3.59,R
,47151,0,0,1840,0.068,0.417,0.972,-11.76,0.10,-2.96,R
,47161,0,0,1840,0.054,0.440,0.991,-15.19,-4.34,-1.36,R
,47171,0,0,1840,0.067,0.437,0.995,-19.42,-8.60,0.17,R
,47181,0,0,1840,0.063,0.437,1.007,-20.69,-9.70,2.78,R
,47191,0,0,1838,0.104,0.407,0.990,-19.12,-10.42,3.10,R
,47201,0,0,1837,0.120,0.403,0.990,-18.08,-10.75,1.81,R
,47211,0,0,1839,0.124,0.388,0.979,-16.29,-8.97,1.13,R
,47221,0,0,1839,0.116,0.382,0.964,-13.82,-7.61,1.52,R
,47231,0,0,1840,0.108,0.377,0.931,-13.77,-6.81,2.44,R
,47241,0,0,1842,0.112,0.354,0.930,-15.01,-7.81,2.38,R
,47251,0,0,1840,0.064,0.375,0.874,-23.73,-8.16,5.83,R
,47261,0,0,1840,0.131,0.339,0.919,-18.74,-11.91,0.56,R
,47271,0,0,1840,0.145,0.327,0.958,-17.10,-13.10,-3.21,R
,47281,16,0,1843,0.104,0.355,0.960,-17.71,-12.87,-2.49,R
,47291,16,0,1841,0.131,0.349,0.903,-16.31,-10.63,-0.60,R
,47301,14,0,1842,0.151,0.367,0.898,-17.88,-11.42,-1.03,R
,47311,13,0,1840,0.151,0.385,0.904,-17.81,-9.53,-2.61,R
,47321,16,0,1838,0.151,0.373,0.888,-20.34,-10.37,-4.92,R
,47331,16,0,1838,0.149,0.367,0.884,-22.95,-14.14,-5.99,R
,47341,0,0,1841,0.151,0.358,0.876,-23.84,-17.15,-6.32,R
,47351,0,0,1841,0.163,0.360,0.869,-24.20,-19.35,-7.44,R
,47361,0,0,1841,0.154,0.377,0.868,-24.81,-19.45,-7.27,R
,47371,0,0,1840,0.162,0.377,0.868,-27.21,-18.65,-5.68,R
,47381,0,0,1842,0.184,0.361,0.910,-26.77,-18.78,-5.85,R
,47391,0,0,1840,0.202,0.344,0.930,-23.81,-16.66,-7.33,R
,47401,0,0,1840,0.188,0.356,0.940,-19.67,-13.39,-8.05,R
,47411,0,0,1842,0.168,0.365,0.933,-16.17,-8.81,-7.42,R
,47421,0,0,1840,0.181,0.337,0.942,-14.37,-5.90,-7.67,R
,47431,0,0,1839,0.188,0.336,0.949,-10.39,-3.01,-8.90,R
,47441,0,0,1840,0.160,0.370,0.945,-10.61,0.53,-11.19,R
,47451,0,0,1838,0.120,0.383,0.936,-11.76,2.35,-10.64,R
,47461,0,0,1840,0.129,0.396,0.959,-10.35,2.97,-8.96,R
,47471,0,0,1837,0.125,0.373,0.924,-11.24,1.40,-11.44,R
,47481,0,0,1838,0.143,0.341,0.972,-11.56,-1.91,-15.47,R
,47491,0,0,1834,0.152,0.317,1.020,-5.00,-3.15,-19.13,R
,47501,0,0,1840,0.138,0.340,1.027,1.00,-1.81,-17.93,R
,47511,0,0,1839,0.135,0.336,0.992,5.10,0.59,-17.48,R
,47521,5,0,1840,0.148,0.332,0.982,7.43,3.20,-18.60,R
,47531,80,0,1839,0.162,0.329,0.959,11.89,6.90,-20.48,R
,47541,0,0,1840,0.177,0.312,0.973,15.83,10.13,-22.98,R
,47551,77,0,1840,0.129,0.364,0.960,16.07,14.74,-22.99,R
,47561,114,0,1840,0.107,0.377,0.963,11.65,15.83,-20.70,R
,47571,256,0,1839,0.101,0.353,0.952,8.71,15.09,-20.11,R
,47581,282,0,1840,0.154,0.315,0.958,12.29,12.77,-23.99,R
,47591,284,0,1841,0.140,0.297,0.966,18.97,12.87,-27.39,R
,47601,281,0,1842,0.127,0.303,0.958,25.51,19.17,-29.96,R
,47611,272,0,1841,0.153,0.299,0.931,36.06,30.04,-32.55,R
,47621,259,0,1839,0.188,0.275,0.982,46.15,41.95,-34.14,R
,47631,240,0,1835,0.094,0.358,0.931,50.93,54.62,-34.95,R
,47641,229,0,1837,0.061,0.447,0.871,38.04,59.14,-32.98,R
,47651,210,0,1835,-0.010,0.436,0.897,35.98,56.61,-21.56,R
,47661,256,0,1836,0.006,0.425,0.906,32.04,50.26,-20.48,R
,47671,233,0,1834,0.048,0.388,0.926,33.13,43.32,-24.63,R
,47681,113,0,1833,0.098,0.347,0.927,43.00,45.02,-31.88,R
,47691,118,0,1834,0.162,0.308,0.898,58.12,55.83,-44.06,R
,47701,27,0,1834,0.128,0.333,0.944,77.90,72.62,-51.64,R
,47711,36,0,1834,0.071,0.412,0.913,89.51,96.59,-52.78,R
,47721,38,0,1837,-0.034,0.502,0.892,90.49,116.15,-37.07,R
,47731,148,0,1840,-0.065,0.542,0.875,72.56,119.32,-22.45,R
,47741,113,0,1834,-0.032,0.534,0.893,59.61,109.93,-12.41,R
,47751,114,0,1834,-0.051,0.559,0.875,45.48,92.96,-9.07,R
,47761,0,0,1837,-0.074,0.560,0.847,29.48,70.13,-11.91,R
,47771,0,0,1831,-0.106,0.489,0.853,14.33,52.88,-14.22,R
,47781,0,0,1833,-0.107,0.491,0.883,6.87,46.24,-14.70,R
,47791,0,0,1835,-0.029,0.458,0.885,8.87,40.64,-14.05,R
,47801,0,0,1840,-0.115,0.490,0.933,13.19,41.61,-11.25,R
,47811,0,0,1833,-0.151,0.554,0.915,7.34,46.29,-5.48,R
,47821,0,0,1837,-0.203,0.603,0.870,-11.19,42.59,6.36,R
,47831,111,0,1834,-0.182,0.578,0.852,-28.35,30.15,14.67,R
,47841,276,0,1838,-0.143,0.551,0.857,-42.02,13.77,19.36,R
,47851,295,0,1833,-0.107,0.518,0.844,-47.67,-0.42,21.95,R
,47861,361,0,1833,-0.082,0.490,0.829,-56.87,-11.62,21.94,R
,47871,384,0,1840,-0.044,0.451,0.857,-59.33,-18.13,22.82,R
,47881,368,0,1840,-0.061,0.433,0.896,-52.52,-16.07,23.59,R
,47891,331,0,1843,-0.085,0.478,0.857,-48.90,-11.04,23.11,R
,47901,591,0,1845,-0.110,0.483,0.896,-55.45,-8.75,22.47,R
,47911,588,0,1842,-0.156,0.500,0.931,-62.34,-12.43,24.23,R
,47921,657,0,1845,-0.128,0.511,0.914,-59.58,-10.68,25.04,R
,47931,655,0,1843,-0.109,0.480,0.918,-49.77,-14.42,28.10,R
,47941,881,0,1841,-0.065,0.462,0.906,-42.54,-14.10,28.29,R
,47951,994,0,1842,-0.042,0.457,0.882,-39.56,-11.90,23.23,R
,47961,1020,0,1841,-0.080,0.452,0.895,-36.28,-7.55,16.23,R
,47971,1007,0,1844,-0.068,0.489,0.854,-29.68,0.13,13.52,R
,47981,1083,0,1847,-0.126,0.560,0.901,-36.89,1.57,10.91,R
,47991,1063,0,1840,-0.140,0.505,0.902,-50.83,-2.08,9.71,R
,48001,1280,0,1839,-0.123,0.459,0.910,-52.69,-11.23,4.58,R
,48011,1314,0,1839,-0.149,0.479,0.916,-48.86,-15.64,2.79,R
,48021,1374,0,1837,-0.136,0.421,0.957,-48.45,-18.23,5.23,R
,48031,1488,0,1835,-0.073,0.360,0.983,-41.64,-18.58,2.46,R
,48041,1632,0,1840,-0.039,0.350,1.006,-26.81,-13.61,-3.39,R
,48051,1675,0,1840,-0.093,0.372,0.986,-17.00,-1.61,-2.98,R
,48061,1697,0,1841,-0.080,0.387,1.020,-13.79,7.72,-5.82,R
,48071,1728,0,1839,-0.069,0.384,0.998,-2.86,13.90,-11.62,R
,48081,1735,0,1840,-0.116,0.440,0.886,1.26,15.45,-17.41,R
,48091,1751,0,1840,-0.152,0.493,0.900,-11.97,9.52,-21.50,R
,48101,1809,0,1840,-0.146,0.422,0.910,-17.53,2.65,-21.04,R
,48111,1840,0,1835,-0.168,0.407,0.904,-21.45,-7.38,-16.40,R
,48121,1879,0,1837,-0.166,0.415,0.872,-21.04,-9.26,-9.12,R
,48131,1898,0,1834,-0.014,0.398,0.865,-27.07,-8.40,-12.05,R
,48141,1922,0,1840,-0.035,0.340,0.910,-22.52,-8.83,-11.19,R
,48151,1951,0,1837,-0.035,0.336,0.946,-20.06,-3.62,-14.72,R
,48161,2000,0,1839,-0.047,0.308,0.936,-11.06,1.14,-15.44,R
,48171,2013,0,1839,-0.037,0.312,0.922,2.50,7.74,-16.25,R
,48181,2000,0,1835,-0.096,0.397,0.905,3.29,14.09,-15.71,R
,48191,2128,0,1837,-0.074,0.422,0.958,-9.58,13.83,-11.74,R
,48201,2170,0,1840,-0.085,0.427,1.015,-9.52,12.30,-14.66,R
,48211,2211,0,1841,-0.109,0.431,0.977,-4.54,8.65,-17.77,R
,48221,2255,0,1837,-0.100,0.413,0.985,-1.36,6.29,-21.07,R
,48231,2242,0,1838,-0.096,0.406,0.999,1.74,5.48,-22.67,R
,48241,2287,0,1837,-0.195,0.222,1.070,10.03,5.48,-19.35,R
,48251,2320,0,1836,-0.162,0.412,0.966,3.90,9.75,-23.33,R
,48261,2321,0,1837,-0.153,0.394,0.935,2.44,11.39,-22.90,R
,48271,2309,0,1836,-0.167,0.401,0.916,-5.50,8.44,-23.39,R
,48281,2348,0,1833,-0.151,0.333,0.892,-12.54,1.13,-24.72,R
,48291,2371,0,1834,-0.125,0.298,0.892,-6.60,-3.68,-28.96,R
,48301,2399,0,1830,-0.148,0.345,0.852,1.80,-2.39,-27.56,R
,48311,2416,0,1829,-0.159,0.361,0.885,0.26,-0.39,-23.62,R
,48321,2448,0,1837,-0.142,0.375,0.902,-6.95,-0.29,-26.87,R
,48331,2537,0,1836,-0.160,0.382,0.876,-19.61,-8.14,-26.64,R
,48341,2559,0,1838,-0.097,0.312,0.907,-18.86,-15.99,-24.26,R
,48351,2622,0,1835,-0.091,0.359,0.923,-6.77,-14.00,-26.09,R
,48361,2663,0,1835,-0.088,0.375,0.917,-3.01,-11.84,-31.03,R
,48371,2742,0,1831,-0.124,0.385,0.944,-4.35,-10.45,-36.64,R
,48381,2781,0,1835,-0.178,0.404,0.927,1.48,-9.76,-37.74,R
,48391,2818,0,1837,-0.228,0.386,0.839,-0.57,-19.27,-34.52,R
,48401,2841,0,1837,-0.207,0.417,0.794,11.36,-3.53,-35.35,R
,48411,2864,0,1830,-0.147,0.406,0.927,6.10,-8.00,-38.93,R
,48421,2860,0,1837,-0.140,0.411,0.945,7.51,-8.65,-36.38,R
,48431,2877,6,1839,-0.077,0.319,0.987,9.43,-7.16,-34.96,R
,48441,2894,5,1835,-0.048,0.357,0.993,11.29,-5.09,-38.32,R
,48451,2925,67,1834,-0.078,0.308,0.954,8.90,-2.54,-42.58,R
,48461,2927,150,1830,-0.130,0.345,0.940,11.61,-3.84,-38.77,R
,48471,2944,191,1834,-0.138,0.380,0.902,12.19,-5.16,-35.42,R
,48481,2922,195,1833,-0.176,0.450,0.885,8.36,-8.52,-33.41,R
,48491,2966,197,1831,-0.029,0.345,0.988,11.71,-9.91,-36.23,R
,48501,2983,208,1834,-0.100,0.429,0.981,1.83,-9.85,-31.94,R
,48511,2992,219,1829,-0.090,0.433,0.949,7.31,-4.92,-32.95,R
,48521,3001,374,1838,-0.115,0.437,0.962,12.41,3.35,-31.50,R
,48531,3009,390,1829,-0.208,0.517,0.936,15.11,10.79,-28.89,R
,48541,3018,407,1836,-0.139,0.432,0.942,14.21,9.06,-25.07,R
,48551,3026,404,1830,-0.187,0.478,0.871,11.20,5.89,-25.21,R
,48561,3025,413,1835,-0.154,0.378,0.896,7.77,0.82,-26.35,R
,48571,3042,410,1830,-0.190,0.385,0.907,3.90,-2.19,-24.90,R
,48581,3043,418,1834,-0.194,0.327,0.909,2.38,-7.56,-27.25,R
,48591,3044,423,1835,-0.229,0.378,0.921,-1.00,-9.97,-27.13,R
,48601,3051,417,1840,-0.162,0.320,0.954,1.87,-8.58,-23.91,R
,48611,3049,448,1837,-0.157,0.448,0.970,2.47,-2.83,-17.54,R
,48621,3056,469,1836,-0.105,0.430,1.001,2.12,2.13,-15.21,R
,48631,3063,479,1837,-0.100,0.498,0.988,-3.73,2.27,-12.90,R
,48641,3079,486,1836,-0.190,0.440,0.950,-2.55,2.35,-13.32,R
,48651,3083,547,1838,-0.151,0.399,0.934,-5.21,2.44,-13.88,R
,48661,3087,573,1834,-0.158,0.372,0.895,-7.61,-1.56,-14.23,R
,48671,3088,562,1836,-0.139,0.387,0.897,-6.26,-1.82,-12.72,R
,48681,3088,592,1837,-0.164,0.395,0.881,-8.69,-1.10,-12.17,R
,48691,3088,592,1834,-0.161,0.431,0.904,-9.15,0.07,-11.19,R
,48701,3068,615,1835,-0.150,0.421,0.889,-10.45,-3.82,-13.09,R
,48711,3069,622,1837,-0.164,0.451,0.909,-11.50,-5.59,-12.23,R
,48721,3071,624,1840,-0.164,0.482,0.934,-9.13,-3.30,-11.44,R
,48731,3071,624,1835,-0.171,0.498,0.945,-10.20,-2.71,-10.69,R
,48741,3063,640,1840,-0.117,0.474,0.996,-6.72,-0.02,-9.07,R
,48751,3083,645,1834,-0.132,0.454,0.952,-6.16,1.57,-9.94,R
,48761,3047,639,1837,-0.151,0.434,0.930,-4.98,2.50,-8.75,R
,48771,3083,640,1830,-0.168,0.405,0.873,-5.52,-0.97,-10.19,R
,48781,3088,650,1835,-0.184,0.399,0.821,-6.10,-5.23,-11.51,R
,48791,3071,658,1838,-0.172,0.424,0.860,-7.52,-7.23,-10.34,R
,48801,3094,662,1834,-0.154,0.419,0.865,-8.17,-7.10,-10.75,R
,48811,3071,728,1828,-0.174,0.420,0.886,-9.10,-7.06,-12.20,R
,48821,3101,738,1836,-0.180,0.437,0.912,-8.08,-6.54,-9.48,R
,48831,3102,737,1835,-0.190,0.442,0.932,-8.98,-6.45,-8.02,R
,48841,3098,754,1835,-0.130,0.397,0.939,-8.25,-6.42,-9.48,R
,48851,3101,773,1835,-0.158,0.434,0.931,-10.71,-7.24,-8.66,R
,48861,3109,767,1830,-0.163,0.409,0.937,-9.00,-7.27,-8.03,R
,48871,3100,787,1836,-0.140,0.409,0.903,-3.50,-4.37,-9.04,R
,48881,3101,781,1837,-0.202,0.428,0.896,-6.08,-4.84,-11.03,R
,48891,3098,784,1838,-0.208,0.418,0.878,-5.45,-8.46,-8.92,R
,48901,3092,789,1833,-0.171,0.447,0.902,-4.98,-8.80,-4.86,R
,48911,3088,784,1833,-0.118,0.431,0.955,-2.32,-9.00,-8.98,R
,48921,3088,796,1835,-0.189,0.447,0.955,-3.41,-8.26,-9.74,R
,48931,3087,811,1838,-0.192,0.413,0.931,-1.91,-9.01,-8.52,R
,48941,3082,779,1836,-0.169,0.385,0.903,-1.73,-10.58,-10.19,R
,48951,3071,785,1834,-0.164,0.378,0.873,-4.22,-10.78,-12.67,R
,48961,3070,786,1834,-0.152,0.376,0.880,-2.45,-8.60,-14.35,R
,48971,3071,804,1833,-0.142,0.397,0.926,0.87,-4.25,-12.23,R
,48981,3067,787,1839,-0.147,0.394,0.944,1.71,-0.81,-12.67,R
,48991,3063,784,1837,-0.171,0.423,0.966,2.53,2.50,-10.09,R
,49001,3070,790,1839,-0.170,0.373,0.946,4.64,3.29,-9.99,R
,49011,3081,790,1841,-0.180,0.425,0.960,-1.35,-1.88,-11.70,R
,49021,3071,784,1840,-0.199,0.420,0.932,-4.63,-8.36,-10.93,R
,49031,3049,784,1840,-0.179,0.386,0.891,-4.78,-12.80,-10.81,R
,49041,3086,784,1839,-0.166,0.401,0.901,-2.00,-12.80,-9.59,R
,49051,3071,770,1840,-0.158,0.399,0.916,-3.71,-11.82,-10.03,R
,49061,3047,775,1840,-0.142,0.412,0.901,-3.90,-10.25,-8.45,R
,49071,3042,771,1838,-0.146,0.408,0.898,-6.86,-8.95,-7.61,R
,49081,3025,766,1836,-0.137,0.407,0.900,-4.81,-9.68,-9.47,R
,49091,3004,768,1839,-0.158,0.441,0.903,-2.86,-6.94,-8.26,R
,49101,3024,771,1840,-0.131,0.421,0.931,-0.19,-4.31,-8.51,R
,49111,3024,784,1837,-0.136,0.433,0.936,2.44,-1.85,-9.16,R
,49121,3021,771,1837,-0.126,0.411,0.958,5.17,1.74,-9.93,R
,49131,3005,774,1833,-0.141,0.426,0.935,5.34,1.81,-11.67,R
,49141,2993,767,1835,-0.129,0.402,0.938,5.80,2.01,-10.77,R
,49151,2995,769,1835,-0.122,0.410,0.931,8.27,1.00,-12.25,R
,49161,3007,769,1835,-0.169,0.432,0.893,6.29,0.24,-14.75,R
,49171,3008,755,1829,-0.174,0.419,0.869,5.63,-5.97,-15.39,R
,49181,3018,750,1839,-0.156,0.420,0.868,5.95,-8.48,-13.85,R
,49191,3018,753,1840,-0.122,0.434,0.882,2.29,-4.58,-12.46,R
,49201,3013,752,1835,-0.125,0.408,0.904,0.03,-4.00,-14.66,R
,49211,3015,767,1839,-0.199,0.437,0.925,2.04,-0.46,-12.77,R
,49221,3019,765,1840,-0.174,0.426,0.930,3.39,0.44,-11.77,R
,49231,3020,780,1838,-0.151,0.443,0.920,1.84,-1.10,-14.22,R
,49241,3014,758,1840,-0.187,0.429,0.924,0.03,-2.81,-12.28,R
,49251,3022,786,1840,-0.172,0.461,0.916,3.77,-6.98,-9.44,R
,49261,3024,791,1835,-0.113,0.449,0.925,2.19,-1.20,-8.93,R
,49271,3029,789,1830,-0.117,0.459,0.922,2.87,4.30,-11.82,R
,49281,3030,786,1834,-0.173,0.474,0.875,3.19,4.65,-12.00,R
,49291,3024,779,1840,-0.204,0.456,0.861,2.90,2.29,-10.00,R
,49301,3030,767,1836,-0.150,0.396,0.872,2.71,-2.58,-11.77,R
,49311,3059,763,1833,-0.166,0.414,0.875,-0.06,-4.94,-11.28,R
,49321,3040,766,1837,-0.137,0.417,0.912,-0.06,-1.26,-7.61,R
,49331,3037,758,1839,-0.141,0.443,0.914,-0.72,2.67,-7.28,R
,49341,3041,754,1839,-0.176,0.458,0.927,-2.48,4.30,-6.11,R
,49351,3047,766,1840,-0.173,0.468,0.908,-2.66,2.45,-5.06,R
,49361,3051,767,1840,-0.168,0.469,0.915,-4.31,-0.98,-5.93,R
,49371,3066,767,1839,-0.174,0.465,0.893,-6.45,-3.67,-7.51,R
,49381,3057,764,1841,-0.186,0.447,0.867,-7.87,-5.49,-7.36,R
,49391,3056,770,1840,-0.158,0.444,0.882,-6.28,-4.61,-5.41,R
,49401,3059,784,1840,-0.140,0.448,0.894,-6.81,-2.81,-5.22,R
,49411,3065,784,1839,-0.166,0.436,0.922,-7.36,-2.48,-5.42,R
,49421,3062,758,1841,-0.145,0.415,0.925,-5.87,-3.62,-4.17,R
,49431,3058,799,1840,-0.136,0.430,0.919,-6.37,-3.01,-3.59,R
,49441,3059,783,1831,-0.159,0.436,0.929,-7.19,-1.42,-4.09,R
,49451,3069,782,1831,-0.147,0.426,0.907,-4.52,0.33,-2.60,R
,49461,3062,774,1836,-0.186,0.406,0.896,-8.42,-0.69,-2.63,R
,49471,3062,802,1838,-0.190,0.451,0.855,-8.06,-2.28,-3.13,R
,49481,3065,802,1835,-0.189,0.447,0.867,-8.02,-2.97,-3.96,R
,49491,3065,842,1839,-0.174,0.455,0.883,-8.31,-5.74,-6.02,R
,49501,3062,800,1840,-0.190,0.462,0.892,-8.55,-5.62,-5.58,R
,49511,3061,793,1840,-0.167,0.459,0.904,-6.77,-4.40,-5.36,R
,49521,3084,815,1835,-0.138,0.447,0.935,-1.84,-2.61,-5.90,R
,49531,3071,766,1840,-0.135,0.435,0.954,-2.81,2.00,-5.32,R
,49541,3081,791,1833,-0.187,0.487,0.920,-2.86,3.87,-5.64,R
,49551,3071,784,1835,-0.198,0.448,0.892,-3.01,2.68,-5.21,R
,49561,3086,788,1837,-0.208,0.447,0.882,-5.16,0.44,-4.95,R
,49571,3088,780,1837,-0.213,0.431,0.882,-6.51,-2.49,-6.20,R
,49581,3097,782,1836,-0.180,0.410,0.883,-6.03,-5.03,-6.93,R
,49591,3071,772,1839,-0.187,0.420,0.892,-7.01,-5.33,-6.66,R
,49601,3098,774,1839,-0.168,0.425,0.896,-4.78,-4.16,-6.31,R
,49611,3063,773,1839,-0.146,0.448,0.918,-3.27,-1.07,-5.28,R
,49621,3093,769,1838,-0.163,0.490,0.939,-3.15,1.57,-4.38,R
,49631,3095,775,1839,-0.154,0.449,0.943,2.21,2.30,-6.28,R
,49641,3098,765,1840,-0.166,0.427,0.926,-2.66,1.54,-5.94,R
,49651,3069,761,1840,-0.174,0.420,0.878,-2.14,-2.69,-7.76,R
,49661,3085,766,1840,-0.167,0.408,0.867,-2.68,-4.61,-7.28,R
,49671,3089,784,1838,-0.161,0.422,0.869,-2.05,-2.46,-6.54,R
,49681,3091,771,1835,-0.164,0.418,0.870,-4.19,-1.59,-6.12,R
,49691,3088,784,1840,-0.161,0.445,0.898,-3.12,-0.75,-5.59,R
,49701,3102,797,1838,-0.144,0.471,0.939,-4.66,-0.81,-5.21,R
,49711,3101,800,1840,-0.150,0.482,0.927,-5.61,-1.38,-5.33,R
,49721,3097,806,1840,-0.155,0.483,0.931,-5.09,1.84,-3.68,R
,49731,3099,801,1840,-0.158,0.465,0.917,-4.40,2.21,-4.69,R
,49741,3111,833,1839,-0.194,0.470,0.884,-5.32,2.41,-5.62,R
,49751,3110,799,1835,-0.193,0.474,0.876,-4.74,-1.26,-4.74,R
,49761,3114,816,1838,-0.209,0.478,0.850,-9.36,-6.14,-6.43,R
,49771,3111,797,1835,-0.179,0.426,0.874,-6.37,-7.47,-7.50,R
,49781,3120,807,1840,-0.192,0.463,0.871,-5.87,-5.15,-6.22,R
,49791,3125,816,1839,-0.146,0.438,0.906,-3.84,-2.02,-5.36,R
,49801,3122,773,1840,-0.176,0.504,0.893,-2.61,1.98,-4.58,R
,49811,3129,816,1839,-0.149,0.452,0.908,-1.24,2.36,-6.54,R
,49821,3125,814,1840,-0.186,0.438,0.894,-4.16,2.99,-6.37,R
,49831,3120,821,1840,-0.220,0.461,0.895,-3.70,0.80,-5.47,R
,49841,3125,830,1839,-0.214,0.444,0.886,-5.53,-2.71,-4.55,R
,49851,3133,848,1839,-0.217,0.443,0.856,-7.71,-6.26,-7.38,R
,49861,3104,848,1840,-0.214,0.454,0.907,-9.35,-7.38,-5.53,R
,49871,3135,848,1839,-0.162,0.476,0.912,-6.32,-3.99,-5.71,R
,49881,3167,849,1838,-0.170,0.468,0.936,-7.64,-0.57,-5.54,R
,49891,3130,851,1839,-0.160,0.438,0.925,-6.22,0.99,-4.74,R
,49901,3133,853,1840,-0.148,0.458,0.916,-6.17,1.72,-2.72,R
,49911,3124,843,1841,-0.159,0.445,0.901,-7.30,1.00,-3.59,R
,49921,3133,845,1840,-0.204,0.437,0.861,-10.89,-3.18,-4.77,R
,49931,3126,843,1840,-0.200,0.420,0.852,-10.57,-9.20,-3.88,R
,49941,3120,832,1840,-0.196,0.413,0.838,-10.90,-11.12,-4.26,R
,49951,3120,839,1839,-0.174,0.407,0.848,-11.24,-11.45,-6.99,R
,49961,3120,843,1834,-0.191,0.429,0.873,-8.52,-9.29,-5.93,R
,49971,3120,843,1838,-0.162,0.448,0.892,-7.22,-7.90,-5.56,R
,49981,3117,845,1840,-0.126,0.485,0.940,-5.94,-3.26,-3.68,R
,49991,3120,838,1840,-0.130,0.495,0.979,-6.26,0.64,-3.97,R
,50001,3124,848,1842,-0.141,0.475,0.975,-4.86,1.93,-3.97,R
,50011,3119,853,1840,-0.160,0.474,0.937,-4.19,1.34,-3.39,R
,50021,3126,832,1837,-0.187,0.449,0.901,-5.44,-0.08,-3.50,R
,50031,3116,799,1840,-0.196,0.435,0.863,-4.84,-2.42,-3.10,R
,50041,3113,837,1831,-0.197,0.417,0.844,-7.09,-5.35,-4.05,R
,50051,3115,839,1839,-0.202,0.415,0.849,-7.30,-7.15,-4.74,R
,50061,3111,834,1835,-0.187,0.414,0.863,-6.26,-8.46,-4.99,R
,50071,3111,794,1839,-0.165,0.425,0.891,-6.42,-8.29,-4.40,R
,50081,3104,851,1839,-0.128,0.453,0.927,-3.06,-4.14,-5.19,R
,50091,3117,846,1838,-0.126,0.493,0.968,-2.40,1.77,-3.93,R
,50101,3127,842,1838,-0.126,0.487,0.968,-2.89,3.97,-4.55,R
,50111,3125,841,1834,-0.170,0.492,0.938,-3.94,3.16,-3.79,R
,50121,3120,835,1833,-0.154,0.467,0.919,-2.10,2.07,-4.66,R
,50131,3130,841,1829,-0.186,0.460,0.889,-4.78,-0.91,-5.42,R
,50141,3125,837,1839,-0.168,0.430,0.871,-1.35,-1.84,-5.73,R
,50151,3135,843,1836,-0.191,0.438,0.853,-3.24,-2.63,-5.58,R
,50161,3136,845,1835,-0.163,0.425,0.867,-1.59,-0.46,-3.50,R
,50171,3121,845,1837,-0.167,0.447,0.874,-4.92,-2.32,-5.53,R
,50181,3129,848,1836,-0.166,0.456,0.907,-4.35,-1.53,-3.21,R
,50191,3125,848,1834,-0.156,0.476,0.921,-6.23,-2.11,-3.50,R
,50201,3137,849,1838,-0.167,0.465,0.915,-7.81,-2.23,-3.27,R
,50211,3133,847,1839,-0.180,0.470,0.912,-8.31,-2.58,-2.89,R
,50221,3131,849,1835,-0.173,0.466,0.916,-7.59,-1.18,-2.16,R
,50231,3133,848,1839,-0.169,0.463,0.915,-8.51,-1.61,-3.50,R
,50241,3132,848,1835,-0.181,0.440,0.902,-7.30,-0.84,-4.25,R
,50251,3133,846,1838,-0.205,0.443,0.888,-8.35,-3.04,-4.77,R
,50261,3136,846,1835,-0.181,0.423,0.868,-7.65,-4.74,-3.90,R
,50271,3135,844,1835,-0.161,0.435,0.885,-8.22,-5.73,-3.90,R
,50281,3137,846,1834,-0.135,0.453,0.923,-5.77,0.38,-2.41,R
,50291,3137,841,1838,-0.135,0.465,0.938,-6.06,3.89,-4.40,R
,50301,3143,839,1840,-0.165,0.459,0.933,-4.75,4.29,-3.19,R
,50311,3142,836,1840,-0.173,0.462,0.924,-3.03,3.16,-3.87,R
,50321,3139,848,1840,-0.204,0.454,0.881,-5.35,-1.38,-5.10,R
,50331,3139,810,1838,-0.206,0.439,0.847,-4.87,-5.09,-4.72,R
,50341,3136,843,1840,-0.212,0.440,0.829,-8.71,-8.97,-5.83,R
,50351,3145,846,1839,-0.189,0.415,0.833,-9.68,-10.74,-5.22,R
,50361,3140,842,1839,-0.161,0.429,0.858,-10.29,-10.80,-3.56,R
,50371,3141,847,1839,-0.116,0.449,0.925,-8.03,-5.64,-1.41,R
,50381,3139,835,1840,-0.109,0.468,0.956,-6.43,-1.01,-3.59,R
,50391,3149,831,1837,-0.131,0.457,0.962,-4.05,2.41,-5.74,R
,50401,3142,819,1839,-0.146,0.477,0.960,-0.40,4.82,-5.54,R
,50411,3142,813,1840,-0.182,0.477,0.914,-1.90,2.88,-6.86,R
,50421,3152,822,1841,-0.200,0.446,0.885,-4.48,-0.94,-5.47,R
,50431,3141,812,1840,-0.175,0.443,0.866,-4.87,-4.98,-5.76,R
,50441,3146,803,1840,-0.167,0.460,0.890,-6.29,-1.99,-4.02,R
,50451,3136,826,1840,-0.196,0.462,0.925,-9.70,-3.62,-3.91,R
,50461,3145,834,1840,-0.170,0.431,0.906,-6.60,-3.03,-4.22,R
,50471,3147,848,1840,-0.175,0.428,0.904,-7.79,-5.41,-4.67,R
,50481,3161,832,1838,-0.164,0.433,0.884,-5.77,-2.91,-3.33,R
,50491,3203,821,1837,-0.190,0.444,0.880,-6.46,-2.77,-5.38,R
,50501,3157,813,1839,-0.188,0.414,0.874,-4.95,-4.75,-5.88,R
,50511,3166,816,1840,-0.202,0.437,0.858,-6.10,-8.65,-5.97,R
,50521,3167,823,1838,-0.179,0.453,0.880,-6.97,-9.35,-4.99,R
,50531,3161,832,1838,-0.153,0.458,0.889,-6.10,-8.03,-6.31,R
,50541,3162,838,1839,-0.180,0.502,0.924,-8.11,-5.01,-2.90,R
,50551,3158,833,1840,-0.139,0.504,0.927,-7.93,-3.79,-1.71,R
,50561,3161,831,1845,-0.144,0.496,0.957,-11.71,-6.52,-2.40,R
,50571,3165,841,1841,-0.128,0.470,0.939,-9.81,-7.81,-2.81,R
,50581,3161,851,1839,-0.115,0.460,0.944,-7.62,-3.55,-1.51,R
,50591,3152,839,1840,-0.131,0.447,0.907,-7.04,-1.32,-4.55,R
,50601,3152,849,1840,-0.186,0.419,0.869,-7.01,-2.57,-5.87,R
,50611,3147,848,1840,-0.190,0.376,0.840,-8.92,-8.17,-6.54,R
,50621,3147,848,1840,-0.193,0.394,0.824,-7.06,-13.26,-6.81,R
,50631,3149,859,1840,-0.160,0.408,0.851,-6.75,-12.29,-5.10,R
,50641,3151,828,1841,-0.104,0.440,0.915,-5.00,-6.14,-2.86,R
,50651,3151,802,1840,-0.105,0.461,0.950,-3.73,1.14,-5.07,R
,50661,3148,821,1835,-0.136,0.473,0.994,-2.80,4.97,-4.14,R
,50671,3146,819,1839,-0.148,0.483,0.958,-1.85,5.09,-3.54,R
,50681,3147,805,1839,-0.181,0.477,0.930,-4.78,0.82,-4.12,R
,50691,3123,798,1837,-0.175,0.465,0.885,-5.45,-2.75,-3.65,R
,50701,3145,809,1840,-0.165,0.449,0.865,-7.06,-4.42,-4.23,R
,50711,3152,804,1839,-0.157,0.423,0.867,-6.78,-5.85,-6.23,R
,50721,3135,784,1840,-0.170,0.439,0.881,-5.01,-3.21,-5.15,R
,50731,3136,784,1838,-0.168,0.442,0.873,-5.50,-2.31,-5.36,R
,50741,3134,782,1836,-0.158,0.440,0.900,-5.62,-5.06,-5.97,R
,50751,3152,784,1835,-0.153,0.471,0.922,-2.60,-3.85,-6.89,R
,50761,3120,792,1835,-0.135,0.471,0.942,-3.48,-0.17,-5.54,R
,50771,3138,775,1832,-0.140,0.477,0.957,-3.88,0.48,-5.48,R
,50781,3141,777,1836,-0.132,0.445,0.932,-2.84,1.28,-4.81,R
,50791,3141,786,1834,-0.156,0.459,0.917,-4.05,2.09,-5.88,R
,50801,3147,811,1837,-0.170,0.443,0.885,-2.97,1.78,-6.70,R
,50811,3139,797,1838,-0.189,0.442,0.861,-3.01,0.74,-5.21,R
,50821,3137,816,1838,-0.206,0.442,0.828,-5.48,-2.23,-5.82,R
,50831,3142,816,1837,-0.205,0.447,0.834,-7.39,-6.57,-5.27,R
,50841,3140,815,1840,-0.184,0.475,0.855,-9.56,-10.17,-5.06,R
,50851,3146,816,1840,-0.120,0.478,0.908,-7.87,-6.63,-3.61,R
,50861,3143,787,1842,-0.109,0.494,0.935,-8.75,-3.76,-5.79,R
,50871,3143,750,1840,-0.084,0.452,0.965,-5.24,1.39,-4.17,R
,50881,3145,804,1840,-0.113,0.461,0.932,-4.49,4.97,-5.44,R
,50891,3143,801,1839,-0.165,0.437,0.911,-4.16,5.29,-6.31,R
,50901,3145,810,1839,-0.197,0.440,0.881,-4.05,1.25,-4.55,R
,50911,3152,823,1835,-0.182,0.433,0.861,-6.26,-2.98,-5.01,R
,50921,3155,818,1837,-0.181,0.427,0.848,-8.92,-6.84,-6.31,R
,50931,3152,821,1838,-0.184,0.441,0.897,-9.00,-6.68,-2.95,R
,50941,3152,816,1838,-0.139,0.442,0.910,-5.30,-1.84,-2.28,R
,50951,3153,824,1841,-0.185,0.479,0.926,-7.64,1.46,-1.93,R
,50961,3167,819,1840,-0.159,0.479,0.946,-3.41,4.35,-2.28,R
,50971,3152,815,1840,-0.190,0.512,0.956,-4.98,3.97,-2.99,R
,50981,3166,791,1840,-0.201,0.487,0.915,-6.13,1.48,-4.11,R
,50991,3155,780,1839,-0.218,0.462,0.872,-8.08,-2.08,-4.28,R
,51001,3161,770,1838,-0.178,0.420,0.851,-8.34,-5.15,-5.27,R
,51011,3152,781,1839,-0.181,0.426,0.853,-8.66,-6.08,-5.10,R
,51021,3105,770,1840,-0.142,0.406,0.872,-6.54,-4.57,-4.40,R
,51031,3136,781,1842,-0.158,0.426,0.865,-9.26,-4.25,-2.77,R
,51041,3152,778,1840,-0.116,0.421,0.888,-7.07,-3.12,-1.96,R
,51051,3152,784,1840,-0.123,0.445,0.914,-7.64,-3.00,-2.99,R
,51061,3152,786,1839,-0.104,0.457,0.930,-6.22,-1.49,-3.59,R
,51071,3152,785,1840,-0.135,0.481,0.936,-7.03,0.39,-4.99,R
,51081,3150,800,1840,-0.130,0.473,0.912,-5.48,0.51,-7.19,R
,51091,3153,823,1840,-0.152,0.473,0.893,-6.55,-0.80,-6.81,R
,51101,3152,791,1840,-0.157,0.452,0.870,-7.42,-2.75,-7.56,R
,51111,3151,791,1835,-0.164,0.451,0.884,-7.84,-2.20,-6.75,R
,51121,3148,790,1837,-0.162,0.440,0.885,-7.61,-2.42,-5.94,R
,51131,3150,788,1837,-0.156,0.429,0.900,-5.65,-2.10,-3.77,R
,51141,3152,789,1837,-0.147,0.438,0.890,-4.90,-1.58,-5.42,R
,51151,3155,817,1830,-0.183,0.449,0.903,-6.26,-0.48,-4.12,R
,51161,3155,800,1838,-0.175,0.438,0.892,-5.12,-1.01,-4.38,R
,51171,3154,794,1840,-0.203,0.434,0.885,-8.19,-5.49,-4.80,R
,51181,3153,803,1839,-0.154,0.418,0.886,-6.77,-6.92,-1.85,R
,51191,3155,790,1840,-0.127,0.473,0.947,-6.49,-4.61,-2.45,R
,51201,3152,805,1837,-0.109,0.468,0.959,-4.55,2.13,-4.19,R
,51211,3151,784,1837,-0.151,0.462,0.935,-5.45,2.45,-4.78,R
,51221,3147,783,1840,-0.156,0.443,0.909,-5.48,1.37,-3.44,R
,51231,3146,781,1837,-0.165,0.450,0.910,-8.40,-3.36,-4.29,R
,51241,3148,799,1835,-0.163,0.442,0.902,-6.40,-2.19,-4.72,R
,51251,3129,787,1834,-0.172,0.433,0.865,-8.23,-4.78,-6.83,R
,51261,3150,778,1840,-0.176,0.420,0.871,-7.41,-6.61,-7.10,R
,51271,3150,784,1836,-0.156,0.437,0.873,-6.32,-4.03,-7.03,R
,51281,3148,793,1836,-0.143,0.444,0.912,-5.12,1.54,-5.62,R
,51291,3151,807,1840,-0.148,0.462,0.921,-6.11,1.43,-6.99,R
,51301,3152,798,1842,-0.136,0.454,0.929,-2.69,1.66,-6.54,R
,51311,3178,789,1840,-0.138,0.480,0.949,-3.87,2.39,-6.43,R
,51321,3170,783,1839,-0.128,0.477,0.943,-3.29,7.03,-3.62,R
,51331,3157,772,1836,-0.142,0.466,0.921,-5.59,5.71,-4.92,R
,51341,3155,779,1840,-0.185,0.446,0.875,-7.74,1.35,-5.35,R
,51351,3156,772,1838,-0.215,0.426,0.829,-10.48,-5.52,-5.77,R
,51361,3156,803,1838,-0.192,0.437,0.833,-9.48,-4.72,-2.69,R
,51371,3155,765,1835,-0.160,0.437,0.853,-11.39,-5.16,-4.69,R
,51381,3152,756,1838,-0.168,0.429,0.883,-9.64,-4.80,-3.68,R
,51391,3152,769,1840,-0.167,0.434,0.899,-9.82,-4.94,-3.28,R
,51401,3157,763,1840,-0.138,0.439,0.916,-7.44,-2.75,-3.13,R
,51411,3156,770,1839,-0.134,0.460,0.943,-8.14,-0.20,-2.05,R
,51421,3156,750,1838,-0.123,0.460,0.958,-6.83,3.14,-2.43,R
,51431,3159,784,1840,-0.161,0.466,0.931,-6.61,3.75,-4.83,R
,51441,3163,789,1839,-0.171,0.448,0.923,-6.10,2.88,-4.41,R
,51451,3168,784,1837,-0.164,0.455,0.884,-6.45,1.31,-4.49,R
,51461,3164,784,1837,-0.185,0.444,0.875,-8.61,-0.14,-5.83,R
,51471,3166,771,1837,-0.193,0.444,0.865,-10.06,-2.98,-4.90,R
,51481,3168,771,1839,-0.184,0.436,0.873,-9.55,-3.03,-4.03,R
,51491,3166,763,1838,-0.180,0.432,0.889,-10.11,-3.10,-4.31,R
,51501,3181,763,1841,-0.167,0.431,0.927,-8.23,-2.29,-4.55,R
,51511,3181,766,1840,-0.171,0.437,0.920,-7.47,-2.05,-4.95,R
,51521,3190,762,1840,-0.149,0.430,0.929,-4.77,-0.51,-4.64,R
,51531,3180,783,1842,-0.151,0.451,0.936,-5.87,0.82,-5.56,R
,51541,3146,784,1840,-0.152,0.454,0.915,-5.84,2.99,-3.83,R
,51551,3184,784,1840,-0.146,0.463,0.925,-6.14,3.16,-2.93,R
,51561,3171,797,1840,-0.151,0.485,0.912,-9.01,0.13,-2.26,R
,51571,3187,798,1837,-0.134,0.392,0.942,-9.39,-3.04,-3.06,R
,51581,3185,803,1838,-0.162,0.453,0.890,-9.58,-0.32,-3.97,R
,51591,3184,807,1835,-0.166,0.416,0.877,-7.21,1.84,-3.65,R
,51601,3194,815,1838,-0.194,0.432,0.872,-7.04,1.35,-3.90,R
,51611,3191,807,1840,-0.221,0.433,0.836,-6.78,-0.25,-3.39,R
,51621,3185,807,1835,-0.226,0.471,0.878,-10.08,-5.03,-1.80,R
,51631,3187,801,1839,-0.179,0.453,0.905,-10.83,-7.59,-4.63,R
,51641,3193,812,1838,-0.156,0.423,0.956,-11.70,-4.51,-5.06,R
,51651,3184,810,1839,-0.119,0.440,0.949,-4.87,-2.19,-5.35,R
,51661,3184,817,1837,-0.160,0.452,0.932,-5.44,-1.01,-5.68,R
,51671,3185,817,1837,-0.152,0.432,0.897,-4.66,0.26,-3.56,R
,51681,3184,814,1838,-0.176,0.427,0.875,-6.34,-0.75,-4.45,R
,51691,3184,804,1837,-0.183,0.404,0.864,-8.58,-4.34,-4.29,R
,51701,3184,811,1840,-0.196,0.421,0.868,-10.10,-7.12,-4.12,R
,51711,3184,832,1839,-0.176,0.435,0.905,-8.37,-5.06,-3.58,R
,51721,3184,832,1837,-0.138,0.455,0.938,-7.01,-0.87,-2.29,R
,51731,3191,819,1841,-0.144,0.468,0.957,-7.38,1.61,-4.40,R
,51741,3186,816,1843,-0.155,0.463,0.959,-3.45,3.08,-5.73,R
,51751,3186,816,1840,-0.167,0.462,0.925,-5.26,0.55,-7.82,R
,51761,3186,827,1840,-0.221,0.520,0.840,-4.58,-3.45,-8.16,R
,51771,3191,832,1840,-0.207,0.387,0.844,-9.91,-9.61,-11.19,R
,51781,3189,818,1838,-0.188,0.354,0.834,-8.61,-10.97,-9.53,R
,51791,3190,826,1839,-0.162,0.369,0.823,-8.26,-8.95,-10.63,R
,51801,3199,829,1840,-0.186,0.428,0.886,-10.92,-5.81,-6.80,R
,51811,3189,817,1837,-0.109,0.414,0.944,-8.46,-3.03,-2.98,R
,51821,3195,823,1836,-0.127,0.468,0.977,-9.87,-0.80,-2.31,R
,51831,3201,816,1836,-0.139,0.472,0.995,-7.04,2.24,-2.93,R
,51841,3208,816,1840,-0.156,0.471,0.959,-4.60,1.51,-4.81,R
,51851,3191,816,1841,-0.167,0.485,0.917,-4.08,-2.10,-6.14,R
,51861,3179,819,1840,-0.151,0.468,0.882,-4.17,-3.67,-6.14,R
,51871,3187,819,1840,-0.145,0.469,0.855,-6.10,-5.62,-8.23,R
,51881,3236,816,1835,-0.136,0.464,0.871,-4.75,-6.10,-5.73,R
,51891,3185,813,1840,-0.115,0.474,0.890,-3.24,-4.32,-5.94,R
,51901,3180,799,1840,-0.133,0.469,0.902,-5.30,-4.83,-6.75,R
,51911,3170,791,1840,-0.130,0.458,0.919,-2.75,-4.97,-3.47,R
,51921,3166,790,1838,-0.128,0.458,0.948,-0.95,-3.90,-5.10,R
,51931,3150,787,1840,-0.178,0.466,0.978,0.85,-3.29,-5.77,R
,51941,3098,781,1839,-0.164,0.463,0.989,9.87,0.50,-2.06,R
,51951,3029,778,1840,-0.174,0.523,0.992,8.88,1.83,-0.38,R
,51961,2950,749,1835,-0.174,0.504,0.988,7.52,-1.26,1.59,R
,51971,2870,714,1835,-0.159,0.496,0.974,8.88,-3.20,5.57,R
,51981,2767,641,1837,-0.200,0.368,0.978,11.69,-7.70,10.06,R
,51991,2652,524,1835,-0.113,0.496,0.896,5.23,-8.26,10.94,R
,52001,2583,501,1838,-0.084,0.490,0.874,1.49,-8.25,16.96,R
,52011,2423,462,1840,-0.071,0.457,0.866,-3.35,-7.44,21.39,R
,52021,2231,375,1840,-0.075,0.459,0.904,-5.35,-11.53,28.04,R
,52031,1991,59,1840,-0.110,0.483,0.888,-11.30,-9.65,35.08,R
,52041,1685,0,1843,-0.114,0.441,0.931,-10.13,-6.80,35.17,R
,52051,1105,0,1840,-0.121,0.423,0.958,-3.65,-4.91,29.80,R
,52061,938,0,1843,-0.083,0.430,0.908,1.37,-1.78,19.01,R
,52071,377,0,1842,-0.106,0.412,0.951,14.62,-0.19,11.52,R
,52081,304,0,1840,-0.160,0.483,0.885,14.70,8.33,7.30,R
,52091,285,0,1839,-0.168,0.472,0.899,11.86,12.70,5.08,R
,52101,11,0,1837,-0.221,0.500,0.905,9.57,13.86,7.84,R
,52111,275,0,1839,-0.196,0.475,0.931,3.08,9.40,10.49,R
,52121,193,0,1839,-0.160,0.477,0.909,2.42,5.68,11.66,R
,52131,70,0,1837,-0.170,0.433,0.905,8.35,4.26,16.21,R
,52141,52,0,1838,-0.152,0.421,0.927,5.69,3.78,15.11,R
,52151,0,0,1840,-0.146,0.395,0.930,4.91,6.47,11.55,R
,52161,0,0,1840,-0.146,0.407,0.958,7.13,8.22,6.12,R
,52171,0,0,1839,-0.174,0.412,0.996,5.42,7.43,-3.96,R
,52181,0,0,1839,-0.213,0.419,0.948,7.89,8.06,-5.58,R
,52191,0,0,1839,-0.198,0.416,0.940,12.12,5.98,-6.51,R
,52201,0,0,1839,-0.172,0.414,0.961,11.69,1.48,-9.42,R
,52211,0,0,1840,-0.184,0.416,0.938,11.22,-3.99,-10.28,R
,52221,0,0,1837,-0.171,0.402,0.948,8.71,-10.16,-8.52,R
,52231,0,0,1840,-0.167,0.407,0.932,6.58,-15.06,-6.60,R
,52241,0,0,1836,-0.146,0.397,0.922,1.60,-22.03,-5.28,R
,52251,0,0,1836,-0.098,0.390,0.903,1.36,-28.17,-5.82,R
,52261,0,0,1840,-0.050,0.367,0.890,4.27,-32.17,-10.34,R
,52271,0,0,1837,-0.034,0.390,0.866,9.37,-32.08,-15.45,R
,52281,0,0,1837,-0.031,0.416,0.840,11.22,-26.63,-20.11,R
,52291,0,0,1838,-0.000,0.390,0.839,14.58,-20.78,-24.17,R
,52301,0,0,1840,-0.012,0.413,0.804,17.39,-14.16,-25.91,R
,52311,0,0,1840,-0.008,0.429,0.775,19.69,-7.49,-26.19,R
,52321,0,0,1840,-0.048,0.465,0.781,19.51,-2.20,-26.34,R
,52331,0,0,1840,-0.062,0.505,0.783,22.55,1.00,-26.87,R
,52341,0,0,1840,-0.060,0.486,0.764,19.42,-0.81,-28.80,R
,52351,0,0,1840,-0.064,0.531,0.764,14.21,-4.08,-29.91,R
,52361,0,0,1837,-0.071,0.549,0.759,12.50,-5.85,-32.46,R
,52371,0,0,1837,-0.084,0.558,0.762,7.83,-7.64,-35.32,R
,52381,0,0,1838,-0.090,0.570,0.770,4.96,-6.69,-36.37,R
,52391,0,0,1839,-0.109,0.572,0.797,4.00,-3.26,-35.88,R
,52401,0,0,1835,-0.127,0.576,0.807,2.47,-0.02,-34.55,R
,52411,0,0,1840,-0.152,0.593,0.818,1.72,1.37,-32.06,R
,52421,0,0,1840,-0.163,0.596,0.825,1.36,0.33,-30.17,R
,52431,0,0,1843,-0.159,0.598,0.831,0.85,-2.16,-27.45,R
,52441,0,0,1844,-0.162,0.605,0.840,1.97,-3.30,-24.45,R
,52451,0,0,1844,-0.166,0.615,0.836,1.14,-3.78,-21.80,R
,52461,0,0,1840,-0.173,0.628,0.842,0.19,-2.97,-19.38,R
,52471,0,0,1840,-0.170,0.633,0.845,-1.84,-2.34,-17.27,R
,52481,0,0,1842,-0.167,0.633,0.846,-5.38,-2.68,-15.70,R
,52491,0,0,1840,-0.178,0.631,0.851,-8.16,-3.78,-14.22,R
,52501,0,0,1840,-0.171,0.620,0.846,-8.63,-4.07,-12.45,R
,52511,0,0,1841,-0.161,0.599,0.851,-8.97,-5.00,-11.38,R
,52521,0,0,1840,-0.159,0.582,0.858,-7.56,-4.26,-10.31,R
,52531,0,0,1839,-0.162,0.584,0.837,-6.83,-2.16,-9.51,R
,52541,0,0,1837,-0.167,0.576,0.831,-6.86,-1.45,-9.50,R
,52551,0,0,1840,-0.167,0.567,0.825,-6.26,-1.67,-10.64,R
,52561,0,0,1840,-0.165,0.577,0.836,-5.16,-2.16,-11.27,R
,52571,0,0,1841,-0.178,0.564,0.826,-5.12,-2.03,-11.70,R
,52581,0,0,1837,-0.201,0.563,0.830,-5.21,-2.26,-11.68,R
,52591,0,0,1837,-0.200,0.557,0.837,-4.23,-2.84,-11.01,R
,52601,0,0,1840,-0.189,0.557,0.841,-2.10,-3.52,-10.32,R
,52611,0,0,1843,-0.170,0.554,0.835,-0.26,-3.33,-10.03,R
,52621,0,0,1840,-0.179,0.560,0.828,-0.69,-1.55,-9.03,R
,52631,0,0,1840,-0.176,0.561,0.822,-1.91,-0.42,-7.76,R
,52641,0,0,1842,-0.178,0.567,0.818,-2.42,1.05,-6.22,R
,52651,0,0,1840,-0.174,0.560,0.811,-3.13,2.59,-5.03,R
,52661,0,0,1841,-0.177,0.570,0.802,-4.22,3.97,-3.35,R
,52671,0,0,1840,-0.183,0.561,0.811,-8.10,3.68,-2.31,R
,52681,0,0,1838,-0.175,0.560,0.827,-8.23,1.69,-2.16,R
,52691,0,0,1838,-0.167,0.563,0.827,-5.21,1.83,-3.62,R
,52701,0,0,1837,-0.162,0.557,0.815,-5.10,2.06,-5.73,R
,52711,0,0,1840,-0.161,0.549,0.818,-7.70,0.70,-7.96,R
,52721,0,0,1840,-0.160,0.558,0.836,-10.06,-0.51,-7.19,R
,52731,0,0,1843,-0.165,0.555,0.847,-10.13,-0.10,-4.83,R
,52741,0,0,1841,-0.164,0.540,0.844,-10.90,1.61,-2.92,R
,52751,0,0,1841,-0.158,0.546,0.843,-11.22,1.71,-2.61,R
,52761,0,0,1842,-0.162,0.542,0.851,-9.77,2.65,-2.81,R
,52771,0,0,1842,-0.163,0.546,0.842,-8.92,2.30,-3.58,R
,52781,0,0,1839,-0.173,0.542,0.838,-8.63,3.74,-3.67,R
,52791,0,0,1841,-0.175,0.547,0.843,-8.40,4.44,-4.14,R
,52801,0,0,1840,-0.174,0.547,0.844,-10.05,3.64,-4.87,R
,52811,0,0,1840,-0.181,0.553,0.856,-9.48,3.17,-4.80,R
,52821,0,0,1840,-0.192,0.550,0.861,-9.18,2.21,-4.83,R
,52831,0,0,1845,-0.184,0.542,0.872,-9.81,-0.16,-4.96,R
,52841,0,0,1843,-0.187,0.543,0.870,-9.39,-2.08,-4.08,R
,52851,0,0,1839,-0.187,0.543,0.875,-8.68,-2.69,-3.04,R
,52861,0,0,1841,-0.177,0.542,0.866,-9.19,-1.55,-2.80,R
,52871,0,0,1840,-0.173,0.529,0.871,-9.53,-1.21,-2.86,R
,52881,0,0,1840,-0.178,0.524,0.868,-8.19,-0.58,-2.80,R
,52891,0,0,1840,-0.173,0.529,0.860,-7.26,-0.08,-2.77,R
,52901,0,0,1840,-0.170,0.530,0.859,-6.92,0.32,-2.98,R
,52911,0,0,1840,-0.173,0.524,0.852,-7.45,1.40,-2.41,R
,52921,0,0,1838,-0.185,0.528,0.847,-9.41,0.84,-2.51,R
,52931,0,0,1840,-0.190,0.523,0.855,-10.00,-0.11,-2.45,R
,52941,0,0,1840,-0.185,0.518,0.856,-8.46,-1.52,-2.54,R
,52951,0,0,1840,-0.170,0.513,0.857,-8.16,-2.83,-3.67,R
,52961,0,0,1840,-0.177,0.507,0.846,-8.89,-3.55,-4.46,R
,52971,0,0,1837,-0.178,0.511,0.861,-8.55,-2.77,-4.51,R
,52981,0,0,1836,-0.174,0.508,0.853,-8.29,-1.76,-4.25,R
,52991,0,0,1842,-0.186,0.515,0.854,-7.12,0.29,-4.09,R
,53001,0,0,1840,-0.175,0.507,0.854,-7.85,0.79,-3.82,R
,53011,0,0,1842,-0.188,0.517,0.852,-7.82,0.93,-3.83,R
,53021,0,0,1840,-0.183,0.517,0.853,-7.41,-0.13,-3.82,R
,53031,0,0,1840,-0.176,0.523,0.858,-6.77,-0.84,-4.17,R
,53041,0,0,1839,-0.173,0.522,0.852,-7.09,-1.01,-4.83,R
,53051,0,0,1838,-0.166,0.517,0.849,-6.66,-1.16,-5.99,R
,53061,0,0,1833,-0.165,0.514,0.843,-6.03,-1.84,-7.56,R
,53071,0,0,1838,-0.161,0.514,0.828,-5.32,-1.87,-8.81,R
,53081,0,0,1836,-0.168,0.530,0.845,-6.05,-0.46,-8.20,R
,53091,0,0,1840,-0.181,0.537,0.841,-6.32,1.78,-7.35,R
,53101,0,0,1839,-0.185,0.537,0.850,-6.98,2.01,-6.35,R
,53111,0,0,1840,-0.183,0.535,0.865,-7.27,0.04,-6.16,R
,53121,0,0,1834,-0.198,0.531,0.860,-5.90,-0.72,-4.92,R
,53131,0,0,1839,-0.197,0.537,0.848,-5.94,-0.74,-4.48,R
,53141,0,0,1840,-0.183,0.536,0.854,-5.90,-1.24,-4.23,R
,53151,0,0,1840,-0.206,0.543,0.847,-7.52,-1.53,-3.30,R
,53161,0,0,1839,-0.197,0.554,0.854,-5.73,-0.84,-2.03,R
,53171,0,0,1840,-0.185,0.537,0.852,-5.90,-2.17,-2.05,R
,53181,0,0,1840,-0.170,0.533,0.851,-5.45,-4.75,-2.29,R
,53191,0,0,1840,-0.174,0.535,0.853,-5.13,-5.39,-2.34,R
,53201,0,0,1831,-0.161,0.530,0.857,-4.11,-4.34,-3.15,R
,53211,0,0,1836,-0.159,0.534,0.861,-4.81,-3.21,-3.97,R
,53221,0,0,1837,-0.156,0.529,0.844,-4.28,-1.73,-4.38,R
,53231,0,0,1835,-0.156,0.518,0.850,-3.41,-1.44,-4.57,R
,53241,0,0,1835,-0.158,0.520,0.851,-2.87,-0.74,-4.55,R
,53251,0,0,1836,-0.153,0.525,0.847,-2.08,-0.11,-4.54,R
,53261,0,0,1834,-0.152,0.525,0.855,-2.32,0.65,-4.32,R
,53271,0,0,1837,-0.161,0.538,0.858,-3.19,1.31,-4.46,R
,53281,0,0,1831,-0.167,0.536,0.868,-3.58,1.42,-4.22,R
,53291,0,0,1831,-0.174,0.534,0.878,-4.22,0.82,-4.03,R
,53301,0,0,1835,-0.176,0.532,0.879,-5.24,-0.36,-3.82,R
,53311,0,0,1831,-0.189,0.540,0.882,-5.67,-0.11,-3.30,R
,53321,0,0,1837,-0.195,0.533,0.886,-5.79,0.19,-3.58,R
,53331,0,0,1838,-0.187,0.516,0.899,-6.23,-1.20,-4.20,R
,53341,0,0,1838,-0.190,0.508,0.889,-6.58,-3.44,-4.66,R
,53351,0,0,1839,-0.193,0.514,0.882,-5.71,-3.85,-4.29,R
,53361,0,0,1840,-0.191,0.509,0.867,-5.88,-3.41,-3.38,R
,53371,0,0,1840,-0.186,0.511,0.853,-6.58,-3.35,-2.43,R
,53381,0,0,1840,-0.181,0.506,0.845,-7.01,-3.56,-1.85,R
,53391,0,0,1840,-0.177,0.502,0.833,-6.93,-3.59,-2.35,R
,53401,0,0,1843,-0.158,0.502,0.827,-8.23,-4.51,-3.35,R
,53411,0,0,1840,-0.157,0.498,0.824,-9.94,-5.35,-3.87,R
,53421,0,0,1844,-0.159,0.508,0.813,-9.93,-3.81,-3.30,R
,53431,0,0,1840,-0.156,0.500,0.814,-11.01,-1.42,-3.79,R
,53441,0,0,1843,-0.156,0.505,0.825,-12.29,-1.12,-5.28,R
,53451,0,0,1846,-0.167,0.508,0.840,-11.22,-1.03,-5.50,R
,53461,0,0,1839,-0.164,0.508,0.849,-9.85,-0.40,-5.45,R
,53471,0,0,1840,-0.168,0.519,0.854,-9.71,0.87,-4.60,R
,53481,0,0,1840,-0.171,0.523,0.859,-8.75,2.45,-4.14,R
,53491,0,0,1837,-0.177,0.528,0.851,-8.54,3.05,-4.08,R
,53501,0,0,1840,-0.177,0.526,0.864,-8.37,2.24,-4.86,R
,53511,0,0,1842,-0.179,0.525,0.871,-7.71,-0.14,-5.30,R
,53521,0,0,1843,-0.167,0.523,0.875,-6.17,-2.49,-5.97,R
,53531,0,0,1843,-0.162,0.527,0.871,-4.63,-3.06,-6.81,R
,53541,0,0,1840,-0.162,0.532,0.873,-3.48,-2.10,-7.39,R
,53551,0,0,1842,-0.163,0.532,0.870,-2.25,-0.84,-7.13,R
,53561,0,0,1840,-0.167,0.531,0.861,-1.99,0.10,-6.98,R
,53571,0,0,1840,-0.172,0.536,0.863,-1.65,-0.46,-6.72,R
,53581,0,0,1840,-0.175,0.524,0.854,-1.82,-1.47,-6.28,R
,53591,0,0,1839,-0.178,0.532,0.859,-1.39,-1.73,-6.06,R
,53601,0,0,1836,-0.173,0.523,0.854,-1.01,-2.32,-6.84,R
,53611,0,0,1839,-0.172,0.527,0.844,-0.98,-2.63,-6.98,R
,53621,0,0,1838,-0.168,0.521,0.855,0.27,-1.65,-7.70,R
,53631,0,0,1840,-0.162,0.518,0.839,1.94,-1.65,-9.25,R
,53641,0,0,1842,-0.157,0.521,0.823,1.28,-2.17,-11.28,R
,53651,0,0,1842,-0.160,0.516,0.816,0.06,-3.47,-12.19,R
,53661,0,0,1840,-0.169,0.521,0.812,0.47,-2.23,-11.27,R
,53671,0,0,1840,-0.162,0.523,0.812,0.06,0.19,-10.25,R
,53681,0,0,1839,-0.167,0.526,0.819,-0.95,2.74,-10.19,R
,53691,0,0,1840,-0.176,0.524,0.817,-0.92,3.84,-10.38,R
,53701,0,0,1842,-0.178,0.526,0.829,-1.21,3.86,-10.81,R
,53711,0,0,1840,-0.188,0.529,0.817,-1.21,3.55,-10.37,R
,53721,0,0,1840,-0.190,0.532,0.815,-1.71,3.32,-9.65,R
,53731,0,0,1840,-0.201,0.553,0.818,-2.72,3.28,-8.86,R
,53741,0,0,1840,-0.199,0.563,0.826,-3.97,3.64,-8.12,R
,53751,0,0,1840,-0.198,0.559,0.825,-6.22,3.31,-7.90,R
,53761,0,0,1840,-0.195,0.556,0.835,-7.87,2.35,-7.94,R
,53771,0,0,1840,-0.198,0.548,0.841,-9.85,0.39,-8.11,R
,53781,0,0,1841,-0.206,0.552,0.854,-8.81,0.62,-6.86,R
,53791,0,0,1842,-0.193,0.558,0.854,-8.31,1.49,-6.06,R
,53801,0,0,1839,-0.198,0.564,0.865,-8.42,2.73,-5.42,R
,53811,0,0,1840,-0.205,0.564,0.874,-8.23,4.21,-4.29,R
,53821,0,0,1839,-0.210,0.562,0.890,-8.39,4.61,-3.35,R
,53831,0,0,1841,-0.212,0.568,0.879,-8.49,3.68,-2.51,R
,53841,0,0,1840,-0.207,0.548,0.881,-8.14,1.75,-2.23,R
,53851,0,0,1840,-0.200,0.543,0.880,-7.30,-1.52,-2.34,R
,53861,0,0,1838,-0.191,0.542,0.858,-5.87,-3.35,-1.93,R
,53871,0,0,1840,-0.187,0.535,0.845,-6.10,-4.92,-3.21,R
,53881,0,0,1839,-0.177,0.532,0.844,-6.49,-5.65,-3.50,R
,53891,0,0,1839,-0.171,0.530,0.848,-6.45,-5.84,-4.05,R
,53901,0,0,1835,-0.171,0.516,0.849,-6.77,-6.78,-4.51,R
,53911,0,0,1839,-0.193,0.512,0.846,-7.15,-8.32,-4.29,R
,53921,0,0,1839,-0.209,0.506,0.879,-5.35,-11.74,-1.85,R
,53931,0,0,1839,-0.162,0.475,0.824,1.83,-12.17,0.03,R
,53941,0,0,1835,-0.206,0.509,0.898,4.47,-13.32,1.30,R
,53951,0,0,1837,-0.186,0.518,0.865,9.98,-15.27,1.68,R
,53961,0,0,1835,-0.185,0.526,0.842,12.09,-16.75,0.58,R
,53971,0,0,1833,-0.208,0.536,0.857,17.78,-13.62,2.41,R
,53981,0,0,1834,-0.170,0.560,0.806,13.57,-15.59,-1.25,R
,53991,0,0,1839,-0.170,0.555,0.808,10.85,-14.51,-0.58,R
,54001,0,0,1842,-0.171,0.595,0.801,10.55,-9.93,-0.60,R
,54011,0,0,1840,-0.166,0.605,0.826,5.89,-12.22,-1.48,R
,54021,0,0,1840,-0.198,0.603,0.813,1.07,-14.77,-3.30,R
,54031,0,0,1841,-0.171,0.617,0.816,-1.44,-14.08,-3.28,R
,54041,0,0,1841,-0.153,0.574,0.800,-4.48,-14.23,-5.07,R
,54051,0,0,1840,-0.155,0.559,0.821,-5.35,-13.27,-6.58,R
,54061,0,0,1839,-0.143,0.556,0.829,-3.64,-11.68,-6.90,R
,54071,0,0,1834,-0.146,0.553,0.839,-0.72,-7.71,-7.10,R
,54081,0,0,1838,-0.139,0.544,0.830,1.31,-4.31,-7.10,R
,54091,0,0,1839,-0.136,0.545,0.843,3.54,-0.51,-7.88,R
,54101,0,0,1839,-0.141,0.539,0.834,7.32,3.16,-8.93,R
,54111,0,0,1839,-0.149,0.537,0.825,10.84,7.58,-9.93,R
,54121,0,0,1840,-0.152,0.536,0.821,13.63,10.62,-10.75,R
,54131,0,0,1840,-0.153,0.542,0.812,14.91,13.06,-11.06,R
,54141,0,0,1839,-0.149,0.541,0.810,16.03,16.15,-10.66,R
,54151,0,0,1840,-0.146,0.553,0.789,17.71,19.35,-11.54,R
,54161,0,0,1837,-0.143,0.553,0.781,20.68,23.75,-13.33,R
,54171,0,0,1837,-0.146,0.533,0.784,22.24,27.78,-14.51,R
,54181,0,0,1837,-0.170,0.550,0.773,25.25,32.94,-14.48,R
,54191,0,0,1835,-0.169,0.552,0.765,28.33,39.00,-13.28,R
,54201,0,0,1836,-0.170,0.566,0.758,29.48,43.05,-12.45,R
,54211,0,0,1837,-0.184,0.576,0.734,30.85,47.35,-12.98,R
,54221,0,0,1840,-0.204,0.575,0.741,30.71,49.63,-14.00,R
,54231,0,0,1836,-0.241,0.587,0.746,30.41,50.79,-15.09,R
,54241,0,0,1839,-0.256,0.588,0.762,34.13,51.06,-16.51,R
,54251,0,0,1839,-0.251,0.589,0.771,36.70,49.05,-19.12,R
,54261,0,0,1837,-0.262,0.596,0.772,39.22,46.42,-22.11,R
,54271,0,0,1840,-0.281,0.616,0.762,39.19,44.87,-23.67,R
,54281,0,0,1840,-0.304,0.642,0.752,38.19,43.43,-21.71,R
,54291,0,0,1833,-0.311,0.666,0.751,37.20,42.22,-18.60,R
,54301,0,0,1839,-0.326,0.695,0.746,34.03,39.58,-15.67,R
,54311,0,0,1843,-0.328,0.701,0.735,28.33,35.54,-13.73,R
,54321,0,0,1839,-0.334,0.709,0.727,21.07,28.74,-12.89,R
,54331,0,0,1839,-0.334,0.702,0.708,16.82,21.87,-12.95,R
,54341,0,0,1840,-0.326,0.691,0.722,11.94,14.50,-13.71,R
,54351,0,0,1837,-0.316,0.685,0.721,7.97,8.38,-13.51,R
,54361,0,0,1840,-0.310,0.690,0.719,4.74,4.71,-12.02,R
,54371,0,0,1840,-0.303,0.692,0.714,3.31,4.03,-10.43,R
,54381,0,0,1842,-0.298,0.697,0.727,0.70,4.24,-9.09,R
,54391,0,0,1835,-0.302,0.689,0.715,-0.00,4.96,-7.18,R
,54401,0,0,1831,-0.286,0.682,0.729,-0.93,5.52,-5.67,R
,54411,0,0,1839,-0.300,0.678,0.720,-0.64,5.83,-5.18,R
,54421,0,0,1829,-0.301,0.669,0.705,0.85,6.13,-4.87,R
,54431,0,0,1838,-0.307,0.669,0.718,1.94,5.66,-5.27,R
,54441,0,0,1840,-0.313,0.658,0.708,2.35,4.56,-6.40,R
,54451,0,0,1836,-0.319,0.673,0.708,3.52,3.32,-6.46,R
,54461,0,0,1834,-0.314,0.681,0.693,4.93,3.54,-5.48,R
,54471,0,0,1834,-0.302,0.679,0.684,5.31,2.82,-5.03,R
,54481,0,0,1836,-0.292,0.682,0.696,2.97,1.78,-4.99,R
,54491,0,0,1838,-0.300,0.690,0.679,1.80,1.87,-4.83,R
,54501,0,0,1840,-0.293,0.690,0.687,1.52,3.19,-3.83,R
,54511,0,0,1840,-0.298,0.685,0.672,-0.32,4.41,-2.96,R
,54521,0,0,1840,-0.314,0.685,0.658,-1.99,4.58,-1.80,R
,54531,0,0,1839,-0.317,0.696,0.671,-3.24,4.38,-0.05,R
,54541,0,0,1839,-0.321,0.692,0.664,-4.63,3.57,0.87,R
,54551,0,0,1833,-0.322,0.694,0.667,-6.06,1.98,1.45,R
,54561,0,0,1835,-0.313,0.701,0.680,-7.93,-0.75,1.71,R
,54571,0,0,1837,-0.318,0.696,0.679,-8.66,-2.86,2.76,R
,54581,0,0,1833,-0.313,0.702,0.669,-10.14,-5.36,3.10,R
,54591,0,0,1838,-0.311,0.721,0.673,-8.49,-3.90,4.47,R
,54601,0,0,1840,-0.296,0.718,0.666,-8.60,-3.30,4.58,R
,54611,0,0,1839,-0.310,0.732,0.672,-10.19,-2.19,5.91,R
,54621,0,0,1840,-0.314,0.734,0.667,-11.93,-2.03,8.53,R
,54631,0,0,1840,-0.331,0.758,0.673,-15.07,-4.37,12.18,R
,54641,0,0,1840,-0.332,0.764,0.674,-20.23,-9.03,15.17,R
,54651,0,0,1833,-0.332,0.766,0.674,-25.16,-14.39,16.61,R
,54661,0,0,1839,-0.323,0.761,0.686,-32.32,-22.83,17.55,R
,54671,0,0,1837,-0.315,0.750,0.683,-39.18,-31.39,19.05,R
,54681,0,0,1839,-0.305,0.734,0.697,-45.30,-38.45,21.22,R
,54691,0,0,1839,-0.287,0.721,0.703,-48.83,-42.45,23.59,R
,54701,0,0,1838,-0.254,0.708,0.718,-51.97,-44.71,25.71,R
,54711,0,0,1840,-0.240,0.679,0.712,-54.57,-46.10,26.61,R
,54721,0,0,1839,-0.222,0.664,0.719,-55.38,-46.17,27.25,R
,54731,0,0,1840,-0.211,0.646,0.721,-57.00,-46.86,28.93,R
,54741,0,0,1840,-0.200,0.629,0.730,-58.52,-48.10,30.20,R
,54751,0,0,1841,-0.189,0.619,0.702,-62.10,-49.33,31.33,R
,54761,0,0,1840,-0.191,0.622,0.709,-64.83,-50.51,32.87,R
,54771,0,0,1840,-0.187,0.615,0.735,-66.19,-49.15,34.15,R
,54781,0,0,1840,-0.165,0.605,0.754,-66.49,-48.89,34.73,R
,54791,0,0,1841,-0.166,0.592,0.757,-68.43,-49.39,34.17,R
,54801,0,0,1840,-0.154,0.580,0.764,-67.70,-49.81,33.60,R
,54811,0,0,1842,-0.133,0.554,0.788,-64.03,-50.28,31.78,R
,54821,0,0,1840,-0.101,0.550,0.792,-58.48,-47.52,29.94,R
,54831,0,0,1845,-0.099,0.556,0.819,-54.31,-42.81,28.46,R
,54841,0,0,1841,-0.091,0.538,0.819,-49.64,-34.57,27.01,R
,54851,0,0,1842,-0.095,0.542,0.827,-47.94,-27.55,27.13,R
,54861,0,0,1842,-0.116,0.551,0.845,-46.78,-21.26,28.17,R
,54871,0,0,1840,-0.123,0.531,0.848,-46.20,-19.04,29.10,R
,54881,0,0,1840,-0.119,0.518,0.865,-46.92,-18.69,29.05,R
,54891,0,0,1843,-0.125,0.519,0.883,-44.64,-19.99,28.93,R
,54901,0,0,1840,-0.117,0.495,0.896,-40.92,-19.73,27.78,R
,54911,0,0,1842,-0.115,0.511,0.902,-38.61,-20.87,26.13,R
,54921,0,0,1840,-0.092,0.502,0.893,-35.59,-21.41,25.20,R
,54931,0,0,1847,-0.088,0.512,0.878,-33.00,-20.83,24.90,R
,54941,0,0,1840,-0.067,0.518,0.865,-32.80,-20.51,24.18,R
,54951,0,0,1844,-0.059,0.527,0.865,-32.49,-19.96,22.78,R
,54961,0,0,1850,-0.061,0.537,0.877,-31.70,-18.16,21.57,R
,54971,0,0,1841,-0.066,0.524,0.885,-34.54,-16.78,21.51,R
,54981,0,0,1840,-0.063,0.506,0.885,-35.87,-17.90,21.69,R
,54991,0,0,1840,-0.076,0.501,0.893,-36.63,-19.85,22.76,R
,55001,0,0,1840,-0.067,0.486,0.902,-39.36,-22.60,23.28,R
,55011,0,0,1840,-0.026,0.443,0.915,-37.56,-24.87,21.52,R
,55021,0,0,1840,-0.009,0.443,0.944,-31.81,-24.54,18.52,R
,55031,0,0,1840,0.007,0.431,0.947,-26.32,-21.00,14.97,R
,55041,0,0,1842,0.015,0.428,0.949,-20.32,-16.83,12.81,R
,55051,0,0,1845,0.002,0.430,0.934,-14.93,-10.89,11.43,R
,55061,0,0,1850,0.004,0.439,0.929,-9.45,-3.91,12.21,R
,55071,0,0,1850,0.001,0.453,0.915,-7.94,-0.51,10.90,R
,55081,0,0,1851,-0.019,0.453,0.897,-10.08,-0.40,8.72,R
,55091,15,0,1847,-0.039,0.485,0.872,-13.45,-0.40,11.19,R
,55101,22,0,1842,-0.049,0.474,0.874,-19.10,-3.09,11.20,R
,55111,16,0,1841,-0.024,0.456,0.910,-23.50,-8.77,8.56,R
,55121,0,0,1841,-0.049,0.458,0.946,-26.84,-14.03,7.08,R
,55131,0,0,1844,-0.063,0.452,0.960,-27.52,-18.51,7.54,R
,55141,0,0,1842,-0.066,0.449,0.945,-27.48,-22.03,7.20,R
,55151,0,0,1845,-0.062,0.460,0.834,-26.48,-20.07,6.07,R
,55161,0,0,1841,0.004,0.407,0.911,-26.71,-23.13,2.26,R
,55171,0,0,1845,-0.021,0.456,0.926,-31.38,-29.35,-2.92,R
,55181,0,0,1843,-0.029,0.444,0.916,-32.92,-31.10,-0.95,R
,55191,0,0,1846,-0.033,0.456,0.896,-32.00,-31.56,3.60,R
,55201,0,0,1842,-0.021,0.473,0.889,-35.16,-31.33,5.40,R
,55211,0,0,1842,-0.031,0.485,0.884,-40.31,-33.30,5.74,R
,55221,0,0,1842,-0.013,0.469,0.888,-44.75,-37.71,6.38,R
,55231,0,0,1853,0.025,0.433,0.905,-46.83,-43.33,6.15,R
,55241,0,0,1843,0.046,0.412,0.903,-45.06,-43.33,6.32,R
,55251,0,0,1843,0.082,0.376,0.904,-45.03,-41.88,4.81,R
,55261,0,0,1847,0.098,0.370,0.929,-41.33,-38.68,2.93,R
,55271,0,0,1843,0.108,0.350,0.933,-35.85,-33.03,1.11,R
,55281,0,0,1841,0.105,0.368,0.928,-36.40,-29.61,1.07,R
,55291,0,0,1840,0.097,0.386,0.908,-36.22,-23.97,2.94,R
,55301,0,0,1840,0.107,0.383,0.892,-35.32,-20.58,3.43,R
,55311,0,0,1841,0.147,0.352,0.894,-35.87,-20.07,0.61,R
,55321,0,0,1840,0.202,0.323,0.905,-29.71,-17.27,-4.63,R
,55331,0,0,1840,0.242,0.307,0.883,-23.71,-9.20,-9.59,R
,55341,0,0,1846,0.257,0.307,0.883,-14.97,4.71,-13.68,R
,55351,0,0,1842,0.222,0.338,0.889,-4.16,24.97,-13.22,R
,55361,0,0,1838,0.187,0.365,0.901,0.78,42.01,-16.31,R
,55371,0,0,1844,0.031,0.288,0.991,2.90,47.55,-12.37,R
,55381,0,0,1840,0.039,0.344,0.979,-2.39,50.82,-18.16,R
,55391,0,0,1844,0.008,0.345,1.000,0.16,46.42,-20.70,R
,55401,0,0,1840,-0.037,0.347,1.007,3.60,42.19,-19.54,R
,55411,378,0,1840,-0.025,0.399,0.942,2.10,38.15,-15.15,R
,55421,689,0,1836,0.029,0.389,0.941,9.29,36.53,-16.95,R
,55431,835,0,1842,0.033,0.394,0.944,14.65,39.20,-19.83,R
,55441,841,0,1840,0.036,0.419,0.911,20.33,49.42,-23.47,R
,55451,1053,0,1840,0.009,0.417,0.902,30.35,63.61,-23.82,R
,55461,1100,0,1839,-0.047,0.416,1.002,38.56,72.74,-32.23,R
,55471,1162,0,1840,-0.010,0.400,0.960,30.82,82.35,-38.81,R
,55481,1003,0,1846,-0.005,0.443,0.899,35.48,87.74,-45.35,R
,55491,1066,0,1840,-0.029,0.403,0.953,48.87,93.48,-46.49,R
,55501,1018,0,1840,-0.230,0.429,1.055,55.10,97.45,-45.42,R
,55511,743,0,1843,0.018,0.406,0.911,49.80,108.90,-49.58,R
,55521,962,0,1838,0.066,0.465,0.861,49.07,116.55,-62.66,R
,55531,1034,0,1838,-0.133,0.461,0.905,54.35,122.50,-62.75,R
,55541,1107,0,1834,-0.371,0.554,0.892,32.62,120.71,-55.25,R
,55551,1040,0,1833,-0.433,0.580,0.930,12.07,104.51,-39.15,R
,55561,1134,0,1835,-0.370,0.516,0.980,4.30,76.21,-24.51,R
,55571,1263,0,1833,-0.279,0.465,0.923,13.45,48.03,-18.37,R
,55581,1354,0,1840,-0.185,0.403,0.868,26.82,29.52,-23.45,R
,55591,1408,0,1840,-0.144,0.394,0.826,14.09,31.42,-37.54,R
,55601,1462,0,1840,-0.183,0.473,0.868,34.19,45.26,-49.71,R
,55611,1661,0,1840,-0.288,0.626,0.824,11.20,65.28,-50.77,R
,55621,1760,0,1837,-0.407,0.634,0.892,-21.87,67.64,-44.80,R
,55631,1726,0,1837,-0.347,0.610,0.857,-24.81,60.01,-36.35,R
,55641,1694,0,1838,-0.325,0.484,0.824,-20.17,38.13,-29.88,R
,55651,1698,0,1837,-0.261,0.406,0.789,-17.84,18.70,-32.14,R
,55661,1669,0,1828,-0.254,0.358,0.792,-13.55,5.81,-29.67,R
,55671,1729,0,1833,-0.143,0.315,0.777,-10.45,0.15,-33.36,R
,55681,1748,0,1835,-0.226,0.398,0.795,-3.88,5.57,-30.17,R
,55691,1840,0,1838,-0.239,0.444,0.866,-11.61,14.50,-27.03,R
,55701,1865,0,1840,-0.201,0.392,0.894,-9.09,24.33,-30.20,R
,55711,1952,0,1838,-0.233,0.422,0.887,-3.21,29.39,-35.85,R
,55721,2046,0,1837,-0.351,0.452,0.851,-4.52,29.97,-33.01,R
,55731,2083,0,1838,-0.376,0.448,0.872,-2.23,20.00,-31.21,R
,55741,2144,0,1834,-0.407,0.427,0.862,4.38,9.26,-33.97,R
,55751,2187,0,1835,-0.438,0.448,0.806,5.55,-0.05,-35.32,R
,55761,2225,0,1835,-0.447,0.458,0.800,1.42,-12.51,-34.69,R
,55771,2320,0,1839,-0.434,0.454,0.779,3.22,-23.73,-32.81,R
,55781,2402,49,1835,-0.381,0.452,0.800,4.85,-33.09,-31.10,R
,55791,2466,230,1835,-0.364,0.454,0.844,2.88,-33.61,-31.01,R
,55801,2489,307,1831,-0.297,0.440,0.878,1.08,-33.15,-30.43,R
,55811,2592,313,1837,-0.309,0.439,0.859,4.12,-27.82,-27.15,R
,55821,2626,320,1836,-0.267,0.431,0.865,8.90,-18.23,-25.70,R
,55831,2670,271,1837,-0.246,0.447,0.867,2.53,-10.17,-24.32,R
,55841,2699,378,1837,-0.244,0.413,0.903,-6.69,-10.78,-26.54,R
,55851,2704,442,1840,-0.311,0.370,0.898,-9.52,-14.80,-25.54,R
,55861,2729,432,1841,-0.288,0.381,0.868,0.29,-18.54,-22.95,R
,55871,2749,465,1845,-0.341,0.435,0.837,-6.29,-21.15,-18.38,R
,55881,2746,481,1840,-0.312,0.430,0.839,-9.18,-25.03,-15.94,R
,55891,2767,470,1839,-0.289,0.456,0.855,-8.02,-24.54,-16.78,R
,55901,2782,468,1837,-0.313,0.496,0.884,-6.28,-20.17,-15.33,R
,55911,2797,470,1840,-0.268,0.481,0.930,-4.00,-14.98,-14.29,R
,55921,2785,495,1840,-0.261,0.508,0.911,-5.59,-7.82,-9.94,R
,55931,2785,503,1839,-0.275,0.540,0.907,-17.42,-6.81,-8.87,R
,55941,2798,510,1838,-0.249,0.478,0.908,-20.83,-11.06,-9.62,R
,55951,2827,528,1839,-0.261,0.439,0.890,-22.68,-14.28,-10.20,R
,55961,2855,529,1835,-0.255,0.406,0.916,-8.51,-10.72,-11.74,R
,55971,2832,530,1840,-0.242,0.453,0.864,-4.86,-4.20,-13.82,R
,55981,2858,525,1838,-0.294,0.452,0.837,-4.87,-2.81,-16.09,R
,55991,2846,496,1839,-0.323,0.442,0.815,-3.58,-6.23,-14.51,R
,56001,2855,490,1840,-0.321,0.457,0.789,-3.15,-12.00,-11.91,R
,56011,2854,487,1834,-0.283,0.465,0.799,-6.06,-18.16,-11.74,R
,56021,2851,508,1836,-0.255,0.480,0.842,-7.12,-19.85,-11.83,R
,56031,2841,539,1839,-0.217,0.468,0.887,-7.97,-17.21,-13.03,R
,56041,2838,558,1840,-0.223,0.469,0.914,-4.45,-11.47,-13.56,R
,56051,2829,579,1840,-0.266,0.442,0.921,-4.16,-5.52,-13.07,R
,56061,2832,589,1840,-0.272,0.429,0.944,0.99,-1.90,-12.05,R
,56071,2839,583,1837,-0.775,0.650,0.022,-47.58,-67.36,8.55,R
,56081,2847,592,1838,-0.449,0.408,0.672,-22.10,-25.12,-4.96,R
,56091,2858,594,1838,-0.372,0.449,0.795,-11.59,-20.89,-10.69,R
,56101,2859,590,1835,-0.330,0.419,0.835,-11.74,-24.16,-13.33,R
,56111,2848,590,1839,-0.325,0.422,0.837,-10.08,-23.88,-11.19,R
,56121,2860,655,1840,-0.259,0.411,0.843,-8.83,-19.23,-8.83,R
,56131,2859,678,1842,-0.267,0.430,0.832,-10.35,-13.00,-8.78,R
,56141,2861,681,1840,-0.271,0.405,0.836,-9.50,-10.80,-9.25,R
,56151,2851,674,1841,-0.172,0.371,1.101,-10.60,-10.42,-7.32,R
,56161,2864,681,1841,-0.246,0.404,0.901,-12.66,-12.43,-3.56,R
,56171,2864,677,1846,-0.279,0.440,0.920,-11.09,-10.20,-3.53,R
,56181,2868,673,1842,-0.282,0.466,0.935,-9.96,-7.56,-4.09,R
,56191,2833,675,1841,-0.294,0.484,0.963,-8.92,-3.71,-4.16,R
,56201,2885,683,1843,-0.288,0.492,0.988,-12.75,-5.29,-3.56,R
,56211,2891,682,1847,-0.366,0.501,0.912,-11.85,-5.21,-3.07,R
,56221,2915,682,1840,-0.293,0.448,0.880,-8.81,-5.42,-5.25,R
,56231,2885,688,1842,-0.300,0.420,0.837,-10.51,-6.71,-7.09,R
,56241,2889,677,1842,-0.301,0.377,0.802,-9.53,-9.55,-6.87,R
,56251,2867,676,1838,-0.293,0.397,0.821,-7.91,-8.91,-5.27,R
,56261,2894,677,1840,-0.263,0.398,0.846,-8.92,-9.32,-4.69,R
,56271,2914,674,1840,-0.274,0.418,0.870,-9.77,-8.86,-3.90,R
,56281,2919,672,1840,-0.265,0.410,0.878,-9.35,-9.07,-5.30,R
,56291,2922,682,1842,-0.255,0.409,0.938,-9.94,-12.28,-6.46,R
,56301,2918,685,1840,-0.349,0.446,0.885,-11.56,-12.95,-5.79,R
,56311,2923,688,1840,-0.280,0.431,0.883,-3.48,-8.74,-6.17,R
,56321,2913,684,1840,-0.296,0.455,0.888,-3.96,-6.66,-6.89,R
,56331,2917,682,1841,-0.265,0.446,0.922,-5.76,-5.78,-5.61,R
,56341,2915,687,1839,-0.262,0.443,0.922,-7.71,-7.59,-4.46,R
,56351,2923,725,1841,-0.241,0.426,0.935,-8.19,-8.74,-3.38,R
,56361,2927,690,1840,-0.232,0.395,0.899,-7.26,-6.54,-2.58,R
,56371,2928,695,1839,-0.219,0.406,0.914,-5.06,-0.77,-1.38,R
,56381,2919,688,1840,-0.214,0.396,0.903,-0.90,5.95,-2.52,R
,56391,2909,698,1840,-0.284,0.418,0.870,-4.46,7.22,-1.41,R
,56401,2906,683,1839,-0.301,0.423,0.848,-6.25,0.44,-0.37,R
,56411,2896,694,1837,-0.297,0.420,0.829,-10.55,-8.31,-2.14,R
,56421,2896,657,1840,-0.301,0.412,0.851,-13.19,-14.54,-3.88,R
,56431,2887,675,1841,-0.257,0.416,0.867,-6.81,-12.42,-4.80,R
,56441,2896,667,1840,-0.250,0.432,0.889,-6.10,-6.74,-5.94,R
,56451,2861,669,1840,-0.253,0.430,0.905,-2.78,-1.35,-6.19,R
,56461,2874,658,1840,-0.272,0.421,0.905,-0.35,1.61,-6.46,R
,56471,2865,615,1840,-0.292,0.410,0.886,-0.51,0.16,-7.44,R
,56481,2821,617,1839,-0.287,0.416,0.886,0.55,-1.21,-6.49,R
,56491,2845,656,1840,-0.258,0.423,0.884,1.26,-2.13,-5.54,R
,56501,2846,677,1835,-0.264,0.444,0.888,-2.10,-2.49,-5.56,R
,56511,2836,650,1834,-0.284,0.442,0.883,-5.53,-4.72,-5.28,R
,56521,2848,659,1838,-0.267,0.426,0.899,-7.32,-8.83,-5.01,R
,56531,2832,576,1840,-0.238,0.422,0.899,-5.55,-10.13,-6.05,R
,56541,2862,637,1840,-0.223,0.424,0.904,-4.57,-8.43,-5.91,R
,56551,2871,655,1840,-0.186,0.412,0.895,1.07,-3.32,-6.78,R
,56561,2885,583,1842,-0.212,0.420,0.886,2.64,2.77,-8.06,R
,56571,2885,587,1840,-0.237,0.419,0.877,4.23,6.30,-8.22,R
,56581,2893,592,1838,-0.261,0.409,0.888,3.92,4.35,-7.24,R
,56591,2893,591,1840,-0.304,0.447,0.872,-0.37,0.39,-5.15,R
,56601,2902,602,1841,-0.269,0.436,0.874,0.58,-2.31,-5.39,R
,56611,2909,576,1840,-0.265,0.468,0.893,-4.19,-3.41,-5.96,R
,56621,2906,620,1840,-0.253,0.433,0.897,-3.24,-2.29,-6.93,R
,56631,2921,624,1840,-0.246,0.431,0.894,-0.63,1.09,-5.87,R
,56641,2929,624,1840,-0.264,0.427,0.891,-1.09,3.97,-5.77,R
,56651,2933,635,1840,-0.245,0.379,0.908,0.93,1.40,-7.04,R
,56661,2941,623,1840,-0.278,0.404,0.865,-2.42,1.20,-4.95,R
,56671,2933,583,1840,-0.300,0.431,0.872,-5.12,-1.16,-5.35,R
,56681,2935,607,1841,-0.289,0.436,0.866,-2.57,-2.77,-4.60,R
,56691,2941,586,1843,-0.272,0.449,0.885,-3.07,-2.57,-3.91,R
,56701,2943,589,1840,-0.272,0.475,0.881,-4.60,-1.18,-3.48,R
,56711,2944,586,1840,-0.289,0.483,0.878,-8.42,-1.07,-2.09,R
,56721,2931,597,1840,-0.251,0.438,0.899,-7.16,-3.74,-2.75,R
,56731,2932,606,1840,-0.240,0.433,0.897,-10.32,-5.36,-2.19,R
,56741,2928,602,1839,-0.260,0.435,0.875,-12.37,-7.27,-3.87,R
,56751,2941,614,1838,-0.283,0.446,0.876,-10.63,-6.42,-2.67,R
,56761,2964,641,1840,-0.248,0.434,0.869,-9.22,-5.41,-4.29,R
,56771,2930,662,1840,-0.246,0.407,0.898,-11.67,-8.22,-6.67,R
,56781,2945,679,1838,-0.221,0.402,0.884,-1.36,-3.45,-6.67,R
,56791,2937,689,1834,-0.238,0.449,0.906,-3.04,3.00,-4.34,R
,56801,2962,683,1840,-0.249,0.456,0.909,-4.93,4.62,-4.09,R
,56811,2943,684,1839,-0.279,0.463,0.915,-8.68,0.22,-4.02,R
,56821,2930,687,1839,-0.366,0.499,0.858,-10.49,-4.87,-1.90,R
,56831,2935,685,1839,-0.262,0.462,0.880,-6.31,-3.97,-2.26,R
,56841,2925,674,1840,-0.246,0.453,0.879,-8.81,-1.87,-2.98,R
,56851,2923,688,1840,-0.264,0.431,0.860,-10.40,-0.68,-3.04,R
,56861,2921,656,1840,-0.282,0.419,0.861,-8.46,-1.47,-2.48,R
,56871,2928,621,1838,-0.281,0.417,0.879,-7.76,-2.89,-2.98,R
,56881,2917,621,1837,-0.304,0.439,0.870,-10.75,-5.32,-2.89,R
,56891,2921,552,1836,-0.285,0.425,0.889,-10.19,-6.94,-3.62,R
,56901,2928,591,1836,-0.264,0.409,0.886,-5.61,-5.47,-4.84,R
,56911,2927,542,1840,-0.263,0.403,0.893,-6.72,-3.79,-5.35,R
,56921,2925,523,1840,-0.260,0.421,0.875,-3.52,-1.76,-3.96,R
,56931,2928,500,1843,-0.263,0.435,0.867,-5.09,-0.45,-4.08,R
,56941,2931,523,1840,-0.278,0.440,0.873,-8.13,-2.48,-4.45,R
,56951,2960,613,1838,-0.290,0.446,0.853,-9.16,-6.51,-4.95,R
,56961,2933,646,1838,-0.278,0.469,0.827,-8.63,-5.67,-5.58,R
,56971,2929,645,1840,-0.259,0.438,0.889,-8.17,-8.40,-6.37,R
,56981,2944,628,1838,-0.242,0.437,0.882,-7.64,-7.20,-7.30,R
,56991,2935,656,1834,-0.249,0.449,0.890,-10.90,-5.79,-6.60,R
,57001,2945,654,1840,-0.237,0.423,0.896,-11.84,-5.87,-4.92,R
,57011,2944,688,1840,-0.210,0.422,0.924,-7.55,-6.98,-5.59,R
,57021,2944,695,1840,-0.209,0.415,0.934,-13.39,-5.73,-5.09,R
,57031,2961,714,1840,-0.210,0.417,0.924,-10.14,-6.60,-5.32,R
,57041,2955,729,1842,-0.243,0.430,0.914,-10.49,-4.51,-5.01,R
,57051,2983,726,1840,-0.251,0.420,0.889,-5.90,-2.23,-5.67,R
,57061,2966,733,1842,-0.266,0.419,0.869,-5.22,-1.73,-6.23,R
,57071,2961,723,1841,-0.284,0.423,0.852,-3.93,-2.43,-6.11,R
,57081,2970,723,1839,-0.268,0.441,0.884,-2.71,-2.94,-5.04,R
,57091,2959,722,1831,-0.251,0.438,0.881,-4.69,-4.57,-5.48,R
,57101,2960,729,1838,-0.251,0.428,0.899,-5.55,-4.87,-5.36,R
,57111,2951,725,1839,-0.260,0.436,0.899,-6.10,-3.55,-4.06,R
,57121,2935,730,1838,-0.226,0.394,0.937,-2.75,-0.57,-4.83,R
,57131,2941,709,1839,-0.230,0.404,0.964,-6.05,0.38,-3.25,R
,57141,2934,730,1831,-0.234,0.423,0.921,-6.32,-1.06,-4.40,R
,57151,2929,734,1840,-0.264,0.409,0.905,-7.35,-2.86,-4.92,R
,57161,2935,730,1834,-0.270,0.415,0.860,-6.11,-3.84,-4.46,R
,57171,2903,733,1840,-0.262,0.414,0.856,-9.13,-5.82,-4.81,R
,57181,2910,739,1838,-0.260,0.420,0.878,-9.73,-6.40,-4.28,R
,57191,2905,735,1839,-0.238,0.415,0.883,-6.49,-4.97,-4.57,R
,57201,2896,740,1840,-0.246,0.432,0.896,-8.49,-3.74,-4.41,R
,57211,2897,754,1840,-0.258,0.436,0.905,-7.16,-0.84,-2.41,R
,57221,2895,739,1838,-0.260,0.436,0.902,-5.36,1.25,-2.95,R
,57231,2897,749,1839,-0.278,0.444,0.895,-8.32,-0.94,-4.74,R
,57241,2891,739,1837,-0.273,0.438,0.891,-5.73,-4.23,-5.25,R
,57251,2886,732,1840,-0.275,0.432,0.876,-6.13,-6.10,-6.46,R
,57261,2889,725,1833,-0.254,0.424,0.874,-5.71,-6.78,-7.28,R
,57271,2883,720,1835,-0.244,0.401,0.869,-5.24,-5.96,-7.58,R
,57281,2860,732,1837,-0.249,0.422,0.861,-4.34,-3.04,-5.76,R
,57291,2865,750,1840,-0.290,0.477,0.833,-2.57,-1.09,-6.70,R
,57301,2842,710,1840,-0.277,0.422,0.837,-3.81,0.07,-7.53,R
,57311,2875,659,1843,-0.236,0.424,0.893,-3.94,-0.78,-5.22,R
,57321,2876,633,1840,-0.261,0.422,0.891,-8.35,-0.49,-5.33,R
,57331,2871,592,1840,-0.252,0.408,0.896,-6.81,-1.26,-5.24,R
,57341,2859,526,1840,-0.257,0.404,0.892,-5.87,0.91,-6.02,R
,57351,2864,525,1840,-0.260,0.437,0.873,-5.39,0.45,-6.34,R
,57361,2866,491,1838,-0.232,0.444,0.885,-3.82,-0.28,-4.86,R
,57371,2855,486,1835,-0.257,0.445,0.893,-10.08,-3.87,-5.33,R
,57381,2855,411,1833,-0.271,0.435,0.845,-4.00,-1.87,-4.51,R
,57391,2853,333,1842,-0.223,0.439,0.948,-5.79,-1.94,-7.90,R
,57401,2859,298,1839,-0.261,0.436,0.957,-9.47,-2.00,-4.99,R
,57411,2859,192,1840,-0.257,0.437,0.913,-6.39,-1.73,-6.87,R
,57421,2851,211,1840,-0.222,0.411,0.928,-0.11,-0.17,-9.70,R
,57431,2858,92,1840,-0.242,0.416,0.925,-1.58,2.47,-7.19,R
,57441,2857,112,1840,-0.240,0.432,0.888,-1.55,2.88,-7.07,R
,57451,2864,84,1841,-0.264,0.439,0.918,-3.85,1.68,-5.97,R
,57461,2866,25,1840,-0.273,0.393,0.872,-3.30,1.54,-2.83,R
,57471,2869,17,1840,-0.256,0.457,0.871,-4.10,1.40,-4.41,R
,57481,2867,27,1837,-0.267,0.465,0.883,-6.57,-1.07,-5.04,R
,57491,2873,59,1839,-0.277,0.489,0.884,-6.95,-4.42,-2.32,R
,57501,2871,32,1838,-0.274,0.481,0.874,-9.52,-7.24,-3.10,R
,57511,2870,16,1838,-0.248,0.442,0.879,-4.81,-7.70,-4.11,R
,57521,2869,0,1840,-0.199,0.414,0.910,-0.61,-3.21,-5.80,R
,57531,2878,0,1840,-0.201,0.411,0.885,6.78,5.81,-6.72,R
,57541,2879,0,1840,-0.245,0.424,0.888,7.13,12.70,-5.38,R
,57551,2886,7,1837,-0.271,0.418,0.896,3.43,10.99,-4.75,R
,57561,2907,22,1839,-0.283,0.417,0.880,5.45,7.20,-4.89,R
,57571,2894,148,1840,-0.274,0.441,0.890,3.66,3.40,-7.93,R
,57581,2933,186,1836,-0.298,0.453,0.885,-1.13,-1.03,-8.19,R
,57591,2928,224,1838,-0.285,0.453,0.894,0.55,-2.54,-5.30,R
,57601,2927,286,1837,-0.247,0.436,0.898,-3.42,-5.42,-6.87,R
,57611,2924,289,1835,-0.298,0.431,0.869,-5.35,-5.61,-5.90,R
,57621,2931,277,1838,-0.273,0.429,0.834,-0.72,-5.09,-6.29,R
,57631,2946,256,1839,-0.268,0.436,0.837,-4.54,-7.00,-6.48,R
,57641,2934,69,1840,-0.254,0.438,0.859,-3.59,-6.45,-5.83,R
,57651,2921,23,1840,-0.248,0.432,0.873,-6.31,-5.81,-5.61,R
,57661,2912,26,1839,-0.252,0.423,0.884,-5.62,-3.93,-6.11,R
,57671,2915,22,1840,-0.259,0.445,0.893,-6.37,-2.95,-5.54,R
,57681,2915,17,1840,-0.245,0.445,0.912,-3.39,-0.98,-5.13,R
,57691,2917,9,1837,-0.267,0.480,0.917,-7.48,0.04,-4.55,R
,57701,2922,16,1836,-0.274,0.459,0.884,-9.97,-1.20,-4.19,R
,57711,2910,17,1840,-0.281,0.461,0.887,-9.58,-4.25,-3.80,R
,57721,2896,16,1840,-0.271,0.456,0.891,-11.48,-7.07,-3.74,R
,57731,2898,37,1841,-0.277,0.453,0.861,-12.75,-7.44,-3.85,R
,57741,2896,38,1839,-0.260,0.432,0.868,-11.82,-8.10,-4.67,R
,57751,2893,31,1840,-0.258,0.427,0.834,-10.55,-8.37,-4.72,R
,57761,2883,0,1840,-0.231,0.413,0.855,-8.34,-6.28,-4.69,R
,57771,2875,0,1839,-0.236,0.440,0.876,-9.04,-4.61,-4.51,R
,57781,2880,0,1834,-0.219,0.450,0.903,-4.86,0.42,-4.25,R
,57791,2875,0,1840,-0.233,0.443,0.895,-5.65,1.57,-5.85,R
,57801,2870,0,1830,-0.267,0.442,0.900,-4.87,-0.20,-6.20,R
,57811,2877,0,1837,-0.266,0.434,0.875,-2.37,-2.00,-5.10,R
,57821,2871,0,1839,-0.256,0.440,0.873,-3.62,-0.45,-5.38,R
,57831,2874,0,1840,-0.263,0.445,0.894,-6.58,-0.66,-4.67,R
,57841,2896,0,1840,-0.232,0.432,0.917,-2.48,2.82,-3.33,R
,57851,2894,0,1840,-0.252,0.460,0.902,-4.11,3.64,-3.99,R
,57861,2900,0,1839,-0.282,0.439,0.885,-4.16,2.99,-3.90,R
,57871,2911,17,1839,-0.302,0.438,0.872,-4.57,-0.29,-3.47,R
,57881,2909,48,1834,-0.300,0.438,0.855,-6.29,-4.89,-4.02,R
,57891,2875,18,1837,-0.248,0.479,0.890,-2.77,-2.94,-2.05,R
,57901,2853,0,1840,-0.223,0.468,0.893,-6.95,-1.20,-5.87,R
,57911,2881,0,1835,-0.271,0.459,0.918,-7.99,-0.03,-5.87,R
,57921,2853,50,1839,-0.241,0.465,0.839,-2.64,5.05,-2.86,R
,57931,2880,58,1839,-0.210,0.413,0.885,-2.57,2.30,-3.56,R
,57941,2889,64,1838,-0.247,0.440,0.859,-8.48,-0.34,-4.03,R
,57951,2890,83,1840,-0.251,0.411,0.868,-9.07,-2.40,-4.58,R
,57961,2890,208,1840,-0.280,0.423,0.842,-11.97,-4.57,-4.25,R
,57971,2880,265,1842,-0.279,0.426,0.853,-13.84,-7.06,-4.12,R
,57981,2882,304,1839,-0.256,0.414,0.882,-13.13,-9.91,-4.08,R
,57991,2894,288,1840,-0.267,0.438,0.893,-12.95,-8.03,-3.21,R
,58001,2893,314,1841,-0.220,0.435,0.936,-6.72,-5.32,-3.90,R
,58011,2893,289,1840,-0.215,0.440,0.949,-3.91,0.87,-5.04,R
,58021,2891,307,1838,-0.242,0.444,0.930,-3.47,4.21,-5.82,R
,58031,2896,265,1838,-0.257,0.437,0.894,-3.29,2.33,-5.03,R
,58041,2897,299,1840,-0.256,0.410,0.882,-1.18,0.55,-5.74,R
,58051,2897,304,1843,-0.264,0.427,0.858,-2.83,-2.00,-5.94,R
,58061,2897,320,1840,-0.260,0.437,0.867,-3.19,-3.00,-6.00,R
,58071,2895,349,1841,-0.256,0.455,0.870,-5.13,-2.94,-5.96,R
,58081,2889,362,1841,-0.267,0.444,0.881,-7.71,-2.42,-5.76,R
,58091,2896,336,1839,-0.265,0.435,0.882,-8.11,-3.33,-5.33,R
,58101,2896,342,1840,-0.260,0.429,0.883,-5.64,-2.08,-5.30,R
,58111,2893,349,1842,-0.244,0.436,0.902,-3.58,0.07,-5.74,R
,58121,2888,335,1841,-0.259,0.450,0.903,-5.06,-0.07,-5.99,R
,58131,2897,401,1844,-0.273,0.447,0.897,-4.80,-1.24,-5.42,R
,58141,2896,355,1840,-0.263,0.449,0.890,-5.07,-2.69,-5.01,R
,58151,2893,391,1837,-0.260,0.451,0.882,-4.11,-2.25,-5.70,R
,58161,2871,394,1840,-0.250,0.437,0.876,-3.99,-2.46,-6.22,R
,58171,2898,398,1840,-0.240,0.446,0.893,-2.46,-1.50,-5.58,R
,58181,2895,400,1840,-0.223,0.425,0.878,-4.39,-1.58,-5.94,R
,58191,2866,399,1837,-0.232,0.414,0.879,-4.06,-0.29,-5.65,R
,58201,2906,420,1839,-0.261,0.427,0.869,-4.61,1.11,-4.89,R
,58211,2896,421,1840,-0.255,0.453,0.871,-4.83,0.38,-3.15,R
,58221,2897,429,1840,-0.248,0.458,0.877,-6.51,-2.19,-4.40,R
,58231,2897,432,1839,-0.255,0.450,0.883,-5.61,-3.47,-5.24,R
,58241,2905,434,1840,-0.255,0.445,0.873,-5.79,-4.51,-5.22,R
,58251,2908,445,1839,-0.246,0.436,0.883,-2.49,-2.31,-4.90,R
,58261,2897,451,1838,-0.224,0.424,0.904,0.35,0.56,-5.71,R
,58271,2896,453,1840,-0.247,0.437,0.871,0.06,4.85,-6.02,R
,58281,2895,464,1842,-0.253,0.440,0.888,0.24,4.42,-4.55,R
,58291,2897,465,1845,-0.260,0.450,0.879,-1.22,1.08,-4.43,R
,58301,2896,465,1845,-0.266,0.445,0.876,-2.87,-1.96,-4.98,R
,58311,2897,464,1843,-0.264,0.473,0.887,-0.97,-0.89,-4.08,R
,58321,2899,473,1841,-0.261,0.470,0.887,-2.32,0.09,-4.34,R
,58331,2890,457,1840,-0.263,0.455,0.876,-0.17,1.35,-5.39,R
,58341,2896,468,1835,-0.259,0.446,0.877,0.24,0.71,-5.70,R
,58351,2901,487,1834,-0.271,0.444,0.879,-1.13,-0.97,-5.64,R
,58361,2902,490,1839,-0.262,0.441,0.858,-1.45,-1.61,-5.44,R
,58371,2898,509,1838,-0.260,0.456,0.846,-3.13,-3.29,-5.07,R
,58381,2897,526,1831,-0.235,0.464,0.879,-1.84,-2.31,-4.70,R
,58391,2905,505,1840,-0.254,0.463,0.879,-5.22,-1.59,-5.13,R
,58401,2864,523,1839,-0.263,0.458,0.890,-4.13,-0.60,-3.74,R
,58411,2906,511,1840,-0.237,0.443,0.890,-1.21,0.64,-4.61,R
,58421,2883,476,1840,-0.260,0.448,0.877,-3.81,1.29,-5.50,R
,58431,2895,544,1839,-0.265,0.436,0.877,-2.78,1.95,-5.96,R
,58441,2885,526,1840,-0.279,0.456,0.888,-4.28,-0.78,-5.28,R
,58451,2893,525,1839,-0.235,0.427,0.929,0.42,-3.18,-7.32,R
,58461,2893,525,1838,-0.270,0.425,0.865,-9.39,-4.48,-6.54,R
,58471,2898,511,1840,-0.269,0.427,0.822,-3.36,-4.84,-6.81,R
,58481,2909,510,1838,-0.270,0.419,0.835,-3.03,-5.32,-6.60,R
,58491,2893,493,1839,-0.262,0.433,0.815,-0.84,-1.85,-7.21,R
,58501,2911,486,1837,-0.262,0.444,0.853,-2.40,1.13,-5.74,R
,58511,2917,471,1840,-0.265,0.455,0.872,-3.41,1.63,-5.47,R
,58521,2911,464,1837,-0.311,0.459,0.856,-5.99,0.62,-5.24,R
,58531,2911,448,1837,-0.323,0.461,0.863,-7.99,-3.42,-4.83,R
,58541,2910,439,1837,-0.298,0.474,0.867,-6.86,-7.29,-4.17,R
,58551,2911,435,1840,-0.270,0.461,0.891,-8.23,-10.17,-6.61,R
,58561,2917,432,1831,-0.259,0.456,0.911,-8.08,-9.78,-7.91,R
,58571,2913,443,1835,-0.223,0.434,0.925,-5.00,-6.97,-8.00,R
,58581,2905,415,1835,-0.230,0.442,0.895,-3.47,-4.19,-7.73,R
,58591,2902,412,1834,-0.226,0.442,0.887,-2.08,-1.18,-6.60,R
,58601,2896,402,1838,-0.247,0.462,0.881,-2.80,0.10,-5.04,R
,58611,2896,383,1829,-0.262,0.480,0.875,-5.13,1.05,-3.41,R
,58621,2895,390,1834,-0.252,0.475,0.882,-5.67,-1.96,-5.47,R
,58631,2891,387,1838,-0.293,0.485,0.863,-8.22,-5.10,-5.68,R
,58641,2893,393,1833,-0.278,0.487,0.870,-6.75,-5.29,-4.11,R
,58651,2894,400,1839,-0.256,0.470,0.875,-7.33,-5.85,-5.28,R
,58661,2898,403,1838,-0.256,0.463,0.855,-8.08,-5.16,-6.81,R
,58671,2898,421,1840,-0.250,0.440,0.875,-6.58,-4.60,-6.52,R
,58681,2908,410,1841,-0.230,0.440,0.886,-4.08,-3.41,-5.41,R
,58691,2913,397,1840,-0.228,0.436,0.875,-2.60,-0.77,-6.32,R
,58701,2912,445,1840,-0.228,0.417,0.874,-3.64,-0.98,-6.69,R
,58711,2903,407,1840,-0.234,0.411,0.856,-1.84,-2.28,-5.80,R
,58721,2900,383,1840,-0.260,0.436,0.852,-2.74,-2.95,-5.82,R
,58731,2871,363,1843,-0.324,0.486,0.834,-6.34,-2.28,-3.80,R
,58741,2885,349,1843,-0.275,0.460,0.881,-3.99,-2.14,-2.25,R
,58751,2883,365,1842,-0.242,0.486,0.876,-4.95,-4.05,-3.99,R
,58761,2896,363,1840,-0.263,0.468,0.911,-9.62,-5.84,-6.17,R
,58771,2917,366,1835,-0.264,0.441,0.883,-6.51,-6.08,-4.61,R
,58781,2896,361,1838,-0.253,0.424,0.856,-5.03,-4.05,-4.25,R
