wallclock_iso,t_ms,fsr1,fsr2,emg,ax,ay,az,gx,gy,gz,mode
,1551241,109,0,1867,0.323,0.977,0.014,0.55,-25.40,26.63,R
,1551251,100,0,1864,0.362,1.032,-0.039,10.65,-23.30,31.73,R
,1551261,71,0,1861,0.397,1.098,-0.065,14.83,-12.47,27.66,R
,1551271,73,0,1857,0.385,1.146,-0.119,13.67,-8.35,23.35,R
,1551281,101,0,1857,0.336,1.167,-0.135,10.02,-12.18,23.35,R
,1551291,99,0,1855,0.302,1.179,-0.166,8.61,-19.73,25.76,R
,1551301,102,0,1859,0.302,1.189,-0.224,4.60,-29.40,29.86,R
,1551311,96,0,1849,0.358,1.162,-0.255,-1.90,-36.20,33.06,R
,1551321,101,0,1857,0.384,1.096,-0.293,-11.39,-35.66,33.86,R
,1551331,102,0,1851,0.397,1.008,-0.335,-23.77,-32.95,34.94,R
,1551341,117,0,1851,0.441,1.002,-0.285,-11.13,-34.89,37.58,R
,1551351,98,0,1851,0.487,0.908,-0.396,-11.25,-31.44,38.41,R
,1551361,71,0,1851,0.499,0.920,-0.254,-18.13,-25.39,40.82,R
,1551371,98,0,1856,0.507,0.823,-0.444,-4.62,-20.81,39.87,R
,1551381,100,0,1854,0.502,0.820,-0.320,-1.81,-14.32,39.58,R
,1551391,101,0,1858,0.481,0.764,-0.434,2.29,-10.32,37.32,R
,1551401,99,0,1855,0.492,0.737,-0.372,-3.51,-10.47,35.02,R
,1551411,99,0,1860,0.494,0.719,-0.385,-5.93,-13.40,31.72,R
,1551421,107,0,1857,0.492,0.701,-0.381,-6.67,-13.25,27.90,R
,1551431,106,0,1855,0.482,0.684,-0.370,-6.29,-11.31,23.51,R
,1551441,109,0,1857,0.469,0.666,-0.375,-5.89,-6.00,19.78,R
,1551451,101,0,1857,0.476,0.656,-0.368,-3.77,-1.44,17.18,R
,1551461,103,0,1851,0.481,0.636,-0.371,-2.99,1.92,14.33,R
,1551471,106,0,1853,0.501,0.624,-0.367,-4.50,4.92,10.42,R
,1551481,112,0,1852,0.499,0.637,-0.381,-7.98,8.99,5.11,R
,1551491,105,0,1856,0.494,0.654,-0.352,-10.88,13.95,0.27,R
,1551501,112,0,1854,0.470,0.675,-0.346,-15.63,17.19,-2.28,R
,1551511,107,0,1855,0.473,0.705,-0.300,-20.15,19.30,-3.78,R
,1551521,103,0,1856,0.470,0.742,-0.300,-25.17,20.96,-7.21,R
,1551531,103,0,1853,0.464,0.781,-0.262,-30.85,22.03,-12.39,R
,1551541,107,0,1854,0.425,0.824,-0.244,-37.60,21.57,-16.83,R
,1551551,101,0,1855,0.395,0.841,-0.196,-44.94,15.39,-19.87,R
,1551561,102,0,1853,0.392,0.857,-0.176,-46.74,9.74,-22.65,R
,1551571,101,0,1854,0.403,0.851,-0.151,-47.11,5.91,-25.40,R
,1551581,106,0,1851,0.416,0.845,-0.127,-45.11,3.28,-27.32,R
,1551591,111,0,1850,0.430,0.834,-0.107,-39.93,2.67,-28.75,R
,1551601,107,0,1842,0.465,0.823,-0.088,-34.00,3.74,-30.78,R
,1551611,115,0,1849,0.498,0.808,-0.082,-29.23,5.34,-34.65,R
,1551621,103,0,1850,0.510,0.787,-0.075,-25.93,6.23,-40.02,R
,1551631,102,0,1855,0.518,0.761,-0.060,-25.43,2.18,-45.32,R
,1551641,105,0,1849,0.508,0.733,-0.080,-29.54,-2.52,-51.06,R
,1551651,108,0,1854,0.521,0.727,-0.052,-40.03,-6.66,-56.19,R
,1551661,107,0,1852,0.491,0.797,-0.010,-57.31,-7.97,-56.88,R
,1551671,107,0,1851,0.451,0.740,-0.043,-58.81,-11.11,-54.04,R
,1551681,108,0,1851,0.437,0.799,0.027,-56.87,-5.76,-48.24,R
,1551691,106,0,1856,0.424,0.811,0.045,-45.60,4.87,-41.99,R
,1551701,105,0,1846,0.436,0.828,0.046,-33.74,13.80,-38.46,R
,1551711,108,0,1849,0.455,0.830,0.037,-25.89,17.69,-38.62,R
,1551721,101,0,1849,0.461,0.846,0.003,-23.14,17.16,-40.33,R
,1551731,105,0,1851,0.454,0.860,0.036,-21.17,14.08,-41.99,R
,1551741,97,0,1843,0.447,0.865,0.029,-18.97,10.24,-43.72,R
,1551751,119,0,1846,0.437,0.871,0.016,-18.74,7.65,-43.14,R
,1551761,102,0,1843,0.443,0.882,0.020,-20.09,6.03,-41.67,R
,1551771,107,0,1843,0.437,0.885,0.022,-21.84,5.25,-38.66,R
,1551781,99,0,1847,0.428,0.902,0.036,-20.64,6.87,-35.81,R
,1551791,103,0,1846,0.432,0.911,0.046,-17.17,8.31,-33.06,R
,1551801,106,0,1852,0.443,0.919,0.021,-14.07,9.56,-31.15,R
,1551811,110,0,1849,0.454,0.922,0.013,-13.03,10.00,-29.75,R
,1551821,109,0,1843,0.454,0.926,0.012,-11.71,9.72,-28.65,R
,1551831,112,0,1841,0.436,0.937,-0.011,-14.50,9.65,-26.65,R
,1551841,112,0,1840,0.445,0.938,0.007,-16.13,8.90,-24.92,R
,1551851,102,0,1840,0.448,0.950,-0.002,-15.74,8.27,-22.13,R
,1551861,105,0,1844,0.459,0.945,-0.019,-15.42,8.95,-20.07,R
,1551871,105,0,1845,0.465,0.957,0.002,-14.76,10.38,-18.68,R
,1551881,119,0,1843,0.459,0.958,0.002,-15.63,11.72,-17.17,R
,1551891,109,0,1846,0.442,0.958,0.020,-17.72,11.48,-15.66,R
,1551901,103,0,1845,0.446,0.959,0.030,-19.84,9.83,-13.11,R
,1551911,107,0,1843,0.432,0.954,0.049,-19.42,9.56,-10.53,R
,1551921,107,0,1845,0.459,0.960,0.035,-19.22,8.26,-9.04,R
,1551931,99,0,1846,0.465,0.973,0.061,-16.48,11.27,-7.38,R
,1551941,103,0,1850,0.468,0.978,0.050,-10.32,12.67,-5.33,R
,1551951,108,0,1843,0.461,0.979,0.019,-7.86,11.95,-5.11,R
,1551961,109,0,1845,0.448,0.988,0.038,-8.47,11.02,-5.32,R
,1551971,101,0,1844,0.422,1.010,0.052,-6.76,12.01,-5.00,R
,1551981,104,0,1851,0.397,1.021,0.056,-4.91,14.55,-3.41,R
,1551991,67,0,1850,0.381,1.019,0.053,-3.71,15.65,-1.52,R
,1552001,104,0,1851,0.374,1.015,0.024,-4.03,9.98,2.45,R
,1552011,107,0,1846,0.375,1.018,0.067,-5.14,8.81,3.64,R
,1552021,102,0,1847,0.374,1.020,0.047,-6.18,13.76,4.18,R
,1552031,104,0,1844,0.383,1.011,0.023,-8.26,14.73,5.63,R
,1552041,110,0,1844,0.372,0.986,0.037,-14.26,14.29,5.78,R
,1552051,106,0,1841,0.368,0.977,0.045,-20.36,13.11,5.70,R
,1552061,64,0,1852,0.361,0.967,0.044,-25.46,11.82,4.82,R
,1552071,106,0,1846,0.363,0.953,0.070,-28.99,12.32,3.84,R
,1552081,121,0,1846,0.342,0.942,0.065,-30.55,12.23,3.32,R
,1552091,103,0,1846,0.338,0.929,0.077,-32.32,13.14,3.08,R
,1552101,105,0,1843,0.329,0.922,0.092,-33.83,13.72,3.09,R
,1552111,102,0,1841,0.313,0.916,0.092,-35.28,14.53,2.93,R
,1552121,103,0,1843,0.303,0.905,0.115,-39.03,13.04,2.63,R
,1552131,114,0,1843,0.292,0.907,0.127,-42.44,11.71,3.32,R
,1552141,109,0,1841,0.299,0.907,0.142,-43.20,11.14,4.77,R
,1552151,106,0,1843,0.304,0.906,0.147,-42.55,11.45,5.96,R
,1552161,101,0,1850,0.309,0.911,0.159,-41.57,12.64,6.50,R
,1552171,107,0,1850,0.300,0.918,0.178,-38.30,14.15,6.79,R
,1552181,112,0,1846,0.298,0.926,0.178,-34.38,12.95,7.52,R
,1552191,103,0,1849,0.315,0.926,0.167,-32.39,11.25,8.01,R
,1552201,101,0,1845,0.324,0.933,0.172,-30.77,8.79,8.12,R
,1552211,99,0,1841,0.320,0.941,0.172,-28.59,6.79,8.16,R
,1552221,108,0,1845,0.318,0.946,0.175,-26.87,4.85,8.88,R
,1552231,55,0,1845,0.322,0.935,0.160,-25.28,3.47,9.93,R
,1552241,103,0,1843,0.335,0.927,0.156,-21.58,1.89,11.55,R
,1552251,112,0,1840,0.347,0.919,0.140,-16.87,2.79,12.89,R
,1552261,105,0,1846,0.352,0.910,0.126,-12.41,4.03,13.22,R
,1552271,111,0,1847,0.347,0.900,0.114,-10.39,4.35,12.89,R
,1552281,102,0,1847,0.333,0.888,0.092,-10.93,4.00,11.18,R
,1552291,106,0,1852,0.306,0.876,0.082,-14.00,2.32,9.29,R
,1552301,103,0,1853,0.289,0.856,0.077,-16.03,0.32,7.41,R
,1552311,106,0,1855,0.272,0.855,0.062,-19.34,-2.90,6.01,R
,1552321,103,0,1856,0.258,0.884,0.067,-18.61,-2.49,7.81,R
,1552331,108,0,1855,0.259,0.885,0.051,-20.29,3.47,10.12,R
,1552341,97,0,1846,0.264,0.905,0.040,-24.01,7.36,14.47,R
,1552351,103,0,1852,0.284,0.905,0.061,-25.95,9.97,19.87,R
,1552361,110,0,1849,0.325,0.906,0.052,-29.63,12.93,22.96,R
,1552371,104,0,1856,0.365,0.896,0.061,-32.85,14.53,23.35,R
,1552381,99,0,1852,0.320,0.887,0.088,-22.61,15.02,20.76,R
,1552391,101,0,1856,0.396,0.890,0.060,-32.15,20.38,19.41,R
,1552401,100,0,1854,0.405,0.895,0.097,-32.18,21.33,17.51,R
,1552411,99,0,1853,0.415,0.889,0.095,-29.84,21.27,16.56,R
,1552421,99,0,1847,0.439,0.919,0.110,-22.56,22.35,16.70,R
,1552431,102,0,1853,0.441,0.910,0.128,-16.68,24.46,16.24,R
,1552441,109,0,1851,0.438,0.909,0.121,-13.72,24.03,15.40,R
,1552451,100,0,1846,0.449,0.911,0.130,-14.59,23.16,15.61,R
,1552461,107,0,1845,0.442,0.917,0.148,-12.61,23.54,15.55,R
,1552471,103,0,1849,0.444,0.896,0.149,-13.46,24.05,15.14,R
,1552481,102,0,1846,0.458,0.885,0.156,-10.71,24.60,12.97,R
,1552491,101,0,1845,0.250,0.985,0.337,-4.32,1.53,8.54,R
,1552501,111,0,1845,0.520,0.845,0.076,-9.71,8.96,8.16,R
,1552511,103,0,1849,0.512,0.799,0.173,-29.20,11.21,-1.56,R
,1552521,96,0,1855,0.524,0.798,0.213,-40.06,1.66,-9.04,R
,1552531,96,0,1850,0.502,0.783,0.255,-40.13,-7.80,-12.39,R
,1552541,86,0,1851,0.553,0.763,0.130,-63.35,-3.77,-10.05,R
,1552551,87,0,1850,0.494,0.784,0.196,-46.87,4.18,-14.78,R
,1552561,95,0,1850,0.431,0.793,0.175,-50.21,13.92,-12.74,R
,1552571,97,0,1853,0.397,0.787,0.314,-64.93,13.10,-7.96,R
,1552581,93,0,1854,0.411,0.797,0.260,-66.96,22.53,-8.34,R
,1552591,94,0,1850,0.321,0.773,0.228,-78.64,3.80,-2.13,R
,1552601,87,0,1851,0.365,0.772,0.293,-76.67,2.72,0.57,R
,1552611,88,0,1852,0.391,0.777,0.365,-76.21,11.68,4.71,R
,1552621,96,0,1851,0.393,0.777,0.343,-66.19,20.75,9.89,R
,1552631,96,0,1850,0.437,0.794,0.418,-55.11,33.95,12.50,R
,1552641,84,0,1845,0.440,0.815,0.406,-43.78,45.95,14.09,R
,1552651,87,0,1849,0.422,0.841,0.450,-39.95,50.20,15.70,R
,1552661,86,0,1850,0.398,0.858,0.442,-38.33,48.72,14.80,R
,1552671,93,0,1846,0.382,0.860,0.461,-42.76,42.63,13.40,R
,1552681,94,0,1851,0.374,0.854,0.486,-46.74,36.40,11.61,R
,1552691,96,0,1843,0.369,0.844,0.505,-48.22,32.60,10.04,R
,1552701,94,0,1842,0.358,0.832,0.515,-44.58,32.09,10.60,R
,1552711,83,0,1844,0.362,0.818,0.520,-37.03,33.79,12.82,R
,1552721,91,0,1841,0.372,0.819,0.518,-28.12,39.33,15.31,R
,1552731,87,0,1845,0.368,0.822,0.500,-20.74,43.92,16.83,R
,1552741,91,0,1845,0.373,0.811,0.500,-18.53,44.79,17.92,R
,1552751,64,0,1850,0.368,0.798,0.490,-20.26,42.27,17.44,R
,1552761,107,0,1846,0.355,0.781,0.501,-21.98,41.76,16.70,R
,1552771,109,0,1851,0.351,0.742,0.498,-26.07,41.04,15.87,R
,1552781,102,0,1854,0.350,0.709,0.498,-29.26,40.41,14.38,R
,1552791,96,0,1845,0.371,0.688,0.519,-34.71,43.42,12.05,R
,1552801,49,0,1850,0.344,0.667,0.526,-34.19,44.14,10.36,R
,1552811,93,0,1854,0.324,0.661,0.547,-32.65,43.89,6.67,R
,1552821,93,0,1846,0.333,0.631,0.548,-34.79,38.49,0.30,R
,1552831,95,0,1853,0.330,0.609,0.554,-47.69,29.30,-6.57,R
,1552841,99,0,1846,0.288,0.687,0.572,-62.30,15.22,-22.40,R
,1552851,96,0,1851,0.317,0.697,0.575,-92.53,-7.60,-35.27,R
,1552861,86,0,1849,0.398,0.647,0.708,-102.36,-8.78,-39.95,R
,1552871,89,0,1841,0.339,0.589,0.664,-127.93,-9.18,-21.78,R
,1552881,96,0,1846,0.197,0.562,0.716,-94.41,13.25,-6.43,R
,1552891,91,0,1846,0.142,0.633,0.900,-54.44,23.16,-13.01,R
,1552901,93,0,1851,0.257,0.664,0.702,-30.71,44.93,6.88,R
,1552911,97,0,1856,0.318,0.851,0.689,-56.67,3.28,-13.03,R
,1552921,102,0,1852,0.375,0.735,0.723,-77.54,9.13,-22.71,R
,1552931,97,0,1853,0.249,0.662,0.873,-57.39,35.48,-10.19,R
,1552941,94,0,1858,0.104,0.679,0.913,-13.83,49.22,1.76,R
,1552951,90,0,1859,0.173,0.832,0.872,10.63,38.06,1.75,R
,1552961,102,0,1856,0.262,0.897,0.818,-13.28,23.34,-8.57,R
,1552971,91,0,1855,0.481,0.804,0.714,-20.51,45.43,-5.56,R
,1552981,93,0,1856,0.273,0.638,0.834,-18.58,68.37,19.47,R
,1552991,95,0,1862,-0.267,1.175,0.848,220.29,100.00,-0.74,R
,1553001,69,0,1863,1.111,0.719,0.667,79.97,217.19,-8.92,R
,1553011,66,0,1862,0.268,0.827,0.315,77.13,174.26,57.12,R
,1553021,93,0,1859,0.211,0.466,0.433,106.13,201.56,91.76,R
,1553031,105,0,1860,-0.153,0.796,0.783,142.13,167.76,95.69,R
,1553041,102,0,1862,0.388,0.859,0.691,179.04,160.67,101.76,R
,1553051,66,0,1867,0.427,0.667,0.872,165.23,121.02,89.73,R
,1553061,97,0,1856,0.406,0.946,0.904,90.32,110.98,59.80,R
,1553071,103,0,1855,0.919,1.038,0.705,60.31,90.14,-1.20,R
,1553081,97,0,1855,0.253,1.013,1.002,-26.16,16.76,-7.55,R
,1553091,91,0,1850,-0.165,0.677,0.247,-72.88,-150.40,5.03,R
,1553101,101,0,1850,0.816,0.557,0.106,-167.75,-189.60,11.00,R
,1553111,109,0,1859,0.155,1.061,1.031,-256.79,-150.58,2.79,R
,1553121,111,0,1850,0.073,0.341,0.551,-107.54,-47.47,3.75,R
,1553131,94,0,1858,0.298,0.540,1.038,-12.85,-35.18,45.83,R
,1553141,95,0,1866,0.578,0.474,0.905,-21.49,-24.17,50.27,R
,1553151,107,0,1863,0.485,0.411,0.750,-26.06,-9.80,36.10,R
,1553161,78,0,1859,0.480,0.422,0.779,-15.58,-2.64,27.46,R
,1553171,95,0,1855,0.457,0.414,0.763,-17.14,0.92,16.83,R
,1553181,95,0,1855,0.454,0.373,0.810,4.10,14.85,9.15,R
,1553191,100,0,1851,0.376,0.362,0.750,20.94,21.34,9.98,R
,1553201,93,0,1855,0.390,0.355,0.688,24.10,16.70,13.08,R
,1553211,92,0,1857,0.437,0.417,0.691,14.02,14.93,6.57,R
,1553221,95,0,1851,0.457,0.429,0.653,-4.64,5.91,-4.40,R
,1553231,94,0,1850,0.454,0.438,0.735,-26.59,-14.03,-18.80,R
,1553241,96,0,1844,0.439,0.391,0.663,-50.15,-26.41,-27.64,R
,1553251,97,0,1846,0.448,0.352,0.681,-59.75,-31.53,-34.94,R
,1553261,94,0,1851,0.448,0.299,0.698,-64.10,-32.43,-39.75,R
,1553271,95,0,1851,0.447,0.281,0.725,-63.63,-31.44,-42.16,R
,1553281,105,0,1849,0.452,0.291,0.763,-53.61,-26.02,-44.34,R
,1553291,101,0,1853,0.462,0.307,0.772,-45.71,-20.84,-50.25,R
,1553301,98,0,1849,0.480,0.333,0.767,-41.48,-20.43,-56.27,R
,1553311,95,0,1856,0.428,0.343,0.810,-37.16,-20.44,-62.82,R
,1553321,94,0,1852,0.455,0.367,0.861,-26.27,-21.30,-68.36,R
,1553331,62,0,1853,0.430,0.386,0.815,-21.86,-22.29,-71.47,R
,1553341,99,0,1853,0.418,0.411,0.817,-21.39,-23.73,-75.99,R
,1553351,65,0,1849,0.349,0.486,0.823,-25.31,-28.64,-79.07,R
,1553361,106,0,1850,0.295,0.512,0.806,-36.41,-43.76,-79.81,R
,1553371,97,0,1852,0.277,0.566,0.787,-53.66,-66.86,-78.42,R
,1553381,99,0,1842,0.297,0.662,0.763,-71.84,-82.38,-76.91,R
,1553391,101,0,1845,0.340,0.640,0.736,-88.59,-97.97,-75.18,R
,1553401,97,0,1851,0.425,0.618,0.734,-109.86,-116.06,-81.21,R
,1553411,102,0,1856,0.476,0.571,0.725,-113.77,-122.64,-91.67,R
,1553421,102,0,1842,0.528,0.492,0.741,-109.61,-120.02,-103.15,R
,1553431,94,0,1841,0.576,0.436,0.713,-96.85,-112.92,-113.38,R
,1553441,96,0,1843,0.575,0.459,0.737,-72.62,-93.31,-120.69,R
,1553451,95,0,1842,0.537,0.489,0.737,-45.74,-63.39,-124.30,R
,1553461,96,0,1840,0.456,0.538,0.732,-16.99,-35.08,-120.65,R
,1553471,97,0,1840,0.362,0.642,0.728,-0.91,-13.80,-113.12,R
,1553481,90,0,1840,0.302,0.675,0.623,5.39,0.67,-111.26,R
,1553491,95,0,1838,0.232,0.739,0.643,-9.43,3.54,-109.58,R
,1553501,103,0,1837,0.173,0.708,0.666,-27.02,-7.83,-111.33,R
,1553511,99,0,1839,0.175,0.712,0.652,-37.26,-23.66,-112.31,R
,1553521,99,0,1840,0.160,0.641,0.630,-37.08,-35.95,-118.13,R
,1553531,97,0,1840,0.164,0.574,0.608,-42.15,-48.09,-127.52,R
,1553541,95,0,1840,0.165,0.578,0.628,-32.65,-50.49,-135.59,R
,1553551,96,0,1841,0.135,0.554,0.594,-14.61,-37.51,-140.94,R
,1553561,97,0,1836,0.131,0.519,0.560,4.19,-22.60,-144.33,R
,1553571,103,0,1840,0.047,0.583,0.595,21.00,2.29,-138.33,R
,1553581,97,0,1837,-0.017,0.636,0.575,43.44,43.30,-128.92,R
,1553591,93,0,1835,-0.040,0.661,0.504,56.19,77.57,-118.31,R
,1553601,97,0,1831,-0.153,0.715,0.568,55.30,93.54,-111.37,R
,1553611,67,0,1837,-0.107,0.772,0.431,56.74,115.60,-103.09,R
,1553621,97,0,1835,-0.182,0.751,0.478,60.07,124.43,-94.49,R
,1553631,101,0,1830,-0.314,0.732,0.631,50.39,122.82,-88.94,R
,1553641,92,0,1835,-0.307,0.751,0.613,48.43,115.89,-86.07,R
,1553651,99,0,1831,-0.248,0.751,0.566,41.18,100.61,-81.26,R
,1553661,86,0,1829,-0.235,0.751,0.535,28.54,91.02,-80.14,R
,1553671,95,0,1837,-0.224,0.748,0.513,16.89,83.79,-81.06,R
,1553681,98,0,1840,-0.259,0.772,0.540,8.92,85.43,-78.59,R
,1553691,103,0,1840,-0.298,0.779,0.551,1.15,92.47,-72.68,R
,1553701,103,0,1841,-0.335,0.771,0.556,-12.07,99.54,-64.08,R
,1553711,97,0,1844,-0.412,0.775,0.589,-28.03,101.19,-52.78,R
,1553721,98,0,1845,-0.460,0.771,0.623,-46.06,97.11,-40.82,R
,1553731,101,0,1842,-0.485,0.782,0.652,-59.64,97.43,-30.75,R
,1553741,98,0,1855,-0.481,0.746,0.656,-72.35,96.35,-23.90,R
,1553751,102,0,1853,-0.464,0.719,0.711,-80.81,95.14,-20.08,R
,1553761,100,0,1854,-0.434,0.671,0.680,-87.17,90.98,-18.42,R
,1553771,96,0,1854,-0.430,0.639,0.734,-93.42,85.39,-16.89,R
,1553781,102,0,1855,-0.170,0.777,1.713,-25.10,59.02,-25.33,R
,1553791,105,0,1859,-0.461,0.632,0.842,-87.32,76.49,-11.55,R
,1553801,101,0,1858,-0.456,0.603,0.817,-80.85,69.59,-9.95,R
,1553811,101,0,1858,-0.462,0.582,0.865,-79.60,63.63,-12.66,R
,1553821,83,0,1852,-0.306,0.630,1.380,-49.92,64.32,-22.43,R
,1553831,0,0,1851,-0.470,0.547,1.042,-37.92,51.62,-25.07,R
,1553841,0,0,1854,-0.405,0.494,1.109,12.65,49.74,-37.87,R
,1553851,30,0,1855,-0.376,0.504,1.041,63.62,67.22,-48.04,R
,1553861,89,0,1857,-0.398,0.551,0.856,106.07,110.14,-41.69,R
,1553871,102,0,1855,-0.580,0.725,0.172,52.71,123.80,-12.13,R
,1553881,94,0,1852,-0.589,0.868,0.509,154.29,195.47,0.45,R
,1553891,99,0,1851,-0.461,0.508,0.744,148.34,180.01,-9.96,R
,1553901,96,0,1851,-0.491,0.694,0.676,126.34,150.81,-27.88,R
,1553911,99,0,1843,-0.463,0.765,0.533,106.16,129.39,-34.78,R
,1553921,93,0,1845,-0.652,0.793,0.557,87.87,85.36,-41.20,R
,1553931,101,0,1842,-0.623,0.724,0.500,77.41,48.35,-47.44,R
,1553941,100,0,1844,-0.760,0.741,0.448,44.52,24.24,-41.09,R
,1553951,96,0,1840,-0.652,0.776,0.434,5.71,4.29,-33.29,R
,1553961,93,0,1841,-0.738,0.860,0.656,-14.84,-12.70,-23.12,R
,1553971,98,0,1853,-0.671,0.832,0.561,-29.29,-22.28,-16.83,R
,1553981,102,0,1851,-0.595,0.726,0.524,-32.07,-17.97,-17.49,R
,1553991,99,0,1842,-0.539,0.671,0.545,-32.42,-9.24,-19.62,R
,1554001,98,0,1847,-0.545,0.628,0.545,-32.35,-0.05,-19.33,R
,1554011,101,0,1842,-0.569,0.604,0.533,-31.17,9.11,-15.21,R
,1554021,100,0,1841,-0.561,0.584,0.539,-30.56,18.29,-9.47,R
,1554031,97,0,1841,-0.558,0.573,0.575,-31.19,24.18,-6.56,R
,1554041,99,0,1849,-0.543,0.536,0.557,-32.22,30.00,-2.91,R
,1554051,63,0,1842,-0.529,0.539,0.571,-34.03,33.30,-2.57,R
,1554061,102,0,1840,-0.551,0.549,0.587,-36.93,32.96,-2.54,R
,1554071,95,0,1840,-0.559,0.556,0.609,-39.74,30.99,-2.92,R
,1554081,64,0,1838,-0.557,0.570,0.617,-42.87,25.28,-6.42,R
,1554091,103,0,1841,-0.572,0.582,0.604,-48.73,18.58,-10.72,R
,1554101,97,0,1841,-0.587,0.588,0.595,-52.68,13.74,-15.30,R
,1554111,99,0,1840,-0.581,0.603,0.624,-58.06,10.21,-18.20,R
,1554121,99,0,1841,-0.579,0.618,0.632,-59.35,7.57,-19.61,R
,1554131,97,0,1847,-0.582,0.636,0.648,-59.42,7.54,-20.34,R
,1554141,111,0,1846,-0.625,0.632,0.693,-57.95,8.12,-21.61,R
,1554151,106,0,1846,-0.587,0.662,0.610,-57.55,10.67,-24.54,R
,1554161,91,0,1847,-0.577,0.648,0.646,-60.79,14.63,-25.17,R
,1554171,81,0,1845,-0.583,0.666,0.631,-62.32,12.46,-29.18,R
,1554181,101,0,1850,-0.593,0.658,0.682,-73.74,8.41,-28.83,R
,1554191,101,0,1852,-0.593,0.663,0.692,-83.97,0.70,-28.71,R
,1554201,106,0,1854,-0.586,0.612,0.697,-91.08,-7.85,-30.97,R
,1554211,99,0,1847,-0.576,0.547,0.744,-92.82,-18.21,-37.14,R
,1554221,103,0,1853,-0.571,0.482,0.742,-90.16,-27.07,-42.69,R
,1554231,99,0,1856,-0.579,0.431,0.756,-85.80,-31.02,-48.22,R
,1554241,100,0,1856,-0.637,0.420,0.776,-74.50,-29.62,-47.82,R
,1554251,98,0,1845,-0.668,0.411,0.792,-60.82,-20.89,-39.20,R
,1554261,98,0,1851,-0.605,0.402,0.787,-44.62,-15.22,-30.31,R
,1554271,95,0,1850,-0.570,0.429,0.743,-32.27,-6.53,-22.42,R
,1554281,98,0,1849,-0.556,0.413,0.734,-21.72,-0.38,-18.43,R
,1554291,101,0,1855,-0.568,0.458,0.694,-17.00,3.31,-14.69,R
,1554301,103,0,1857,-0.600,0.457,0.701,-17.90,2.50,-12.24,R
,1554311,66,0,1855,-0.623,0.447,0.705,-18.96,-2.08,-9.01,R
,1554321,101,0,1855,-0.652,0.449,0.707,-21.26,-6.98,-3.79,R
,1554331,100,0,1855,-0.660,0.458,0.728,-21.48,-9.40,2.71,R
,1554341,99,0,1854,-0.648,0.424,0.780,-17.87,-13.76,5.26,R
,1554351,75,0,1853,-0.644,0.414,0.816,-12.30,-16.05,6.62,R
,1554361,97,0,1846,-0.628,0.403,0.822,-2.91,-15.10,8.48,R
,1554371,66,0,1847,-0.612,0.417,0.818,4.98,-12.67,11.05,R
,1554381,106,0,1853,-0.622,0.421,0.830,11.96,-11.68,12.13,R
,1554391,99,0,1853,-0.631,0.432,0.813,18.28,-8.49,14.33,R
,1554401,70,0,1851,-0.644,0.460,0.819,20.71,-5.44,18.51,R
,1554411,98,0,1850,-0.649,0.463,0.803,21.53,-6.05,23.00,R
,1554421,101,0,1846,-0.649,0.485,0.787,19.79,-8.93,25.81,R
,1554431,98,0,1852,-0.639,0.480,0.775,16.28,-11.76,25.51,R
,1554441,99,0,1844,-0.620,0.503,0.756,11.50,-16.12,25.28,R
,1554451,64,0,1850,-0.601,0.503,0.737,3.23,-20.72,23.67,R
,1554461,98,0,1849,-0.597,0.508,0.720,-8.50,-25.83,22.21,R
,1554471,95,0,1850,-0.584,0.493,0.729,-18.27,-31.53,19.52,R
,1554481,97,0,1845,-0.566,0.482,0.751,-25.03,-36.37,16.93,R
,1554491,101,0,1850,-0.541,0.460,0.727,-24.79,-37.33,14.44,R
,1554501,96,0,1847,-0.503,0.432,0.725,-26.18,-35.79,10.63,R
,1554511,101,0,1847,-0.480,0.418,0.713,-27.22,-31.79,6.89,R
,1554521,100,0,1847,-0.480,0.405,0.714,-29.40,-28.44,4.73,R
,1554531,104,0,1847,-0.476,0.392,0.706,-32.48,-24.58,4.82,R
,1554541,98,0,1847,-0.468,0.375,0.726,-32.62,-20.35,5.98,R
,1554551,98,0,1842,-0.448,0.363,0.709,-33.14,-17.57,4.89,R
,1554561,102,0,1845,-0.436,0.336,0.720,-32.16,-15.19,4.60,R
,1554571,114,0,1847,-0.433,0.324,0.720,-33.37,-13.71,5.83,R
,1554581,99,0,1850,-0.430,0.311,0.733,-33.16,-13.91,6.15,R
,1554591,112,0,1851,-0.424,0.290,0.750,-27.60,-12.89,6.59,R
,1554601,102,0,1853,-0.408,0.282,0.766,-22.32,-10.26,6.13,R
,1554611,101,0,1851,-0.408,0.300,0.769,-19.80,-5.85,4.77,R
,1554621,69,0,1851,-0.421,0.317,0.768,-23.39,-4.12,3.09,R
,1554631,89,0,1852,-0.428,0.321,0.787,-26.21,-5.22,-0.91,R
,1554641,102,0,1847,-0.438,0.303,0.814,-31.17,-6.67,-5.90,R
,1554651,97,0,1856,-0.441,0.317,0.833,-35.23,-8.05,-9.00,R
,1554661,99,0,1856,-0.465,0.321,0.866,-36.12,-6.79,-10.20,R
,1554671,80,0,1856,-0.489,0.308,0.876,-26.53,-3.33,-9.04,R
,1554681,103,0,1861,-0.468,0.346,0.875,-13.03,4.43,-7.40,R
,1554691,94,0,1858,-0.451,0.345,0.883,-0.68,14.67,-4.34,R
,1554701,98,0,1858,-0.451,0.353,0.850,2.28,21.94,-3.32,R
,1554711,108,0,1855,-0.453,0.378,0.890,8.71,21.60,-5.59,R
,1554721,96,0,1857,-0.469,0.382,0.870,10.60,20.29,-6.19,R
,1554731,98,0,1857,-0.505,0.413,0.826,5.87,19.31,-3.96,R
,1554741,112,0,1857,-0.530,0.454,0.812,-0.65,16.50,-0.95,R
,1554751,100,0,1845,-0.525,0.459,0.812,-7.16,11.30,-0.11,R
,1554761,109,0,1852,-0.497,0.448,0.810,-14.90,5.59,-2.24,R
,1554771,96,0,1851,-0.530,0.463,0.809,-24.03,1.14,-4.13,R
,1554781,102,0,1856,-0.536,0.443,0.829,-23.00,-3.83,-2.14,R
,1554791,106,0,1855,-0.511,0.407,0.833,-16.35,-5.85,-1.47,R
,1554801,98,0,1854,-0.476,0.387,0.834,-19.72,-8.90,-2.86,R
,1554811,110,0,1858,-0.485,0.368,0.832,-19.08,-9.80,-6.83,R
,1554821,96,0,1855,-0.472,0.336,0.826,-17.05,-11.04,-8.97,R
,1554831,97,0,1855,-0.482,0.324,0.839,-18.00,-12.23,-8.37,R
,1554841,97,0,1853,-0.472,0.300,0.849,-17.54,-12.98,-8.24,R
,1554851,101,0,1850,-0.457,0.299,0.849,-18.33,-13.05,-9.69,R
,1554861,101,0,1848,-0.475,0.296,0.847,-21.49,-13.25,-10.36,R
,1554871,95,0,1851,-0.482,0.284,0.845,-19.14,-13.74,-9.84,R
,1554881,105,0,1850,-0.461,0.263,0.849,-16.30,-12.92,-12.14,R
,1554891,100,0,1851,-0.472,0.280,0.836,-16.15,-10.70,-13.93,R
,1554901,100,0,1853,-0.483,0.277,0.840,-17.26,-9.37,-15.41,R
,1554911,97,0,1852,-0.507,0.261,0.847,-14.51,-6.14,-13.82,R
,1554921,107,0,1851,-0.509,0.272,0.838,-12.36,-2.90,-12.08,R
,1554931,113,0,1855,-0.513,0.284,0.836,-10.10,-0.26,-11.17,R
,1554941,97,0,1853,-0.537,0.314,0.839,-7.64,1.51,-10.34,R
,1554951,97,0,1850,-0.537,0.319,0.848,-6.85,0.99,-9.56,R
,1554961,97,0,1846,-0.533,0.320,0.839,-7.78,-1.76,-9.85,R
,1554971,103,0,1849,-0.560,0.338,0.833,-9.39,-6.57,-8.78,R
,1554981,98,0,1849,-0.557,0.346,0.842,-8.90,-12.05,-7.84,R
,1554991,99,0,1853,-0.544,0.353,0.844,-12.87,-18.12,-7.44,R
,1555001,94,0,1846,-0.554,0.337,0.854,-15.17,-26.26,-6.46,R
,1555011,96,0,1842,-0.522,0.335,0.878,-15.49,-34.11,-7.01,R
,1555021,96,0,1844,-0.479,0.300,0.900,-13.42,-37.66,-7.23,R
,1555031,99,0,1847,-0.460,0.296,0.865,-9.83,-41.69,-9.33,R
,1555041,92,0,1847,-0.464,0.318,0.858,-11.63,-40.00,-10.02,R
,1555051,98,0,1842,-0.467,0.302,0.890,-11.49,-35.97,-8.54,R
,1555061,99,0,1845,-0.480,0.322,0.897,-10.76,-27.95,-3.35,R
,1555071,100,0,1849,-0.456,0.317,0.946,-5.19,-18.93,1.34,R
,1555081,98,0,1851,-0.440,0.294,0.932,-0.33,-9.95,4.85,R
,1555091,98,0,1852,-0.430,0.309,0.946,2.80,-2.64,5.81,R
,1555101,107,0,1851,-0.437,0.309,0.915,4.72,1.40,6.79,R
,1555111,99,0,1853,-0.437,0.320,0.913,5.45,2.75,7.60,R
,1555121,112,0,1850,-0.447,0.333,0.893,3.93,1.95,7.86,R
,1555131,103,0,1847,-0.441,0.322,0.886,1.81,-1.31,7.61,R
,1555141,103,0,1845,-0.432,0.339,0.856,-2.93,-6.28,7.29,R
,1555151,99,0,1842,-0.429,0.336,0.837,-11.06,-13.27,5.61,R
,1555161,99,0,1845,-0.391,0.353,0.825,-16.96,-29.37,7.49,R
,1555171,102,0,1850,-0.451,0.298,0.775,-19.00,-28.02,3.93,R
,1555181,89,0,1849,-0.387,0.281,0.864,-13.34,-27.80,2.96,R
,1555191,97,0,1846,-0.370,0.273,0.855,-11.86,-27.39,1.60,R
,1555201,102,0,1847,-0.358,0.269,0.854,-11.63,-26.75,1.25,R
,1555211,90,0,1852,-0.337,0.212,0.856,-9.80,-25.59,0.48,R
,1555221,83,0,1845,-0.397,0.269,0.786,-10.42,-18.70,3.96,R
,1555231,62,0,1845,-0.376,0.251,0.842,-9.39,-13.25,4.70,R
,1555241,0,0,1842,-0.383,0.236,0.833,-6.00,-11.51,5.60,R
,1555251,0,0,1850,-0.385,0.243,0.852,-7.46,-11.01,3.12,R
,1555261,0,0,1842,-0.409,0.251,0.876,-3.48,-11.65,1.83,R
,1555271,0,0,1846,-0.406,0.258,0.874,1.62,-10.75,1.35,R
,1555281,0,0,1843,-0.433,0.271,0.851,6.94,-9.86,3.75,R
,1555291,0,0,1843,-0.450,0.305,0.853,6.75,-7.77,4.74,R
,1555301,0,0,1851,-0.457,0.321,0.865,0.22,-8.79,2.57,R
,1555311,0,0,1842,-0.456,0.327,0.861,-6.04,-11.89,-0.25,R
,1555321,0,0,1847,-0.451,0.321,0.871,-14.91,-16.57,-3.06,R
,1555331,0,0,1851,-0.462,0.255,0.919,-23.46,-25.50,-5.73,R
,1555341,0,0,1846,-0.479,0.349,0.882,-29.35,-31.62,3.28,R
,1555351,0,0,1846,-0.438,0.275,0.815,-32.00,-29.76,9.43,R
,1555361,0,0,1853,-0.383,0.282,0.895,-34.30,-30.15,9.37,R
,1555371,30,0,1854,-0.314,0.212,0.925,-39.87,-30.57,5.15,R
,1555381,48,0,1856,-0.266,0.166,0.986,-30.45,-28.47,-0.57,R
,1555391,32,0,1856,-0.284,0.161,0.964,-21.45,-20.78,-2.71,R
,1555401,85,0,1856,-0.308,0.167,0.949,-20.15,-10.58,-0.83,R
,1555411,86,0,1851,-0.309,0.163,0.967,-21.26,-2.06,2.02,R
,1555421,93,0,1849,-0.321,0.168,0.955,-17.63,3.74,4.22,R
,1555431,85,0,1852,-0.341,0.183,0.963,-15.22,6.03,4.89,R
,1555441,75,0,1849,-0.349,0.199,0.937,-14.97,6.67,3.63,R
,1555451,76,0,1849,-0.358,0.219,0.946,-13.06,6.38,0.85,R
,1555461,65,0,1849,-0.395,0.248,0.938,-13.95,3.27,-1.59,R
,1555471,64,0,1847,-0.419,0.281,0.942,-18.41,-0.63,-2.85,R
,1555481,55,0,1847,-0.420,0.270,0.968,-23.43,-5.15,-3.23,R
,1555491,56,0,1849,-0.401,0.254,0.975,-23.81,-9.16,-3.00,R
,1555501,59,0,1842,-0.386,0.226,1.002,-20.50,-10.35,-3.98,R
,1555511,58,0,1846,-0.365,0.201,1.004,-14.03,-9.44,-4.46,R
,1555521,22,0,1847,-0.358,0.200,1.012,-10.10,-7.77,-4.54,R
,1555531,0,0,1846,-0.364,0.232,0.984,-9.16,-4.44,-3.18,R
,1555541,0,0,1847,-0.343,0.215,0.983,-10.32,-3.60,-3.23,R
,1555551,0,0,1847,-0.322,0.190,0.975,-5.77,-2.58,-4.43,R
,1555561,0,0,1846,-0.356,0.216,0.947,-4.53,-1.89,-4.42,R
,1555571,0,0,1847,-0.344,0.214,0.908,-7.69,-2.53,-4.98,R
,1555581,0,0,1850,-0.334,0.228,0.897,-9.14,-1.85,-5.30,R
,1555591,0,0,1847,-0.344,0.204,0.846,-19.05,2.66,-3.24,R
,1555601,0,0,1846,-0.337,0.217,0.902,-18.70,6.89,-5.49,R
,1555611,0,0,1850,-0.284,0.186,0.912,-17.16,10.01,-9.93,R
,1555621,0,0,1844,-0.493,0.128,0.948,-16.38,20.18,-13.09,R
,1555631,422,0,1851,-0.391,0.092,1.009,-21.55,16.95,-18.45,R
,1555641,462,0,1851,-0.473,0.117,1.101,7.88,14.24,-19.58,R
,1555651,431,0,1852,-0.404,0.179,1.040,16.49,17.51,-12.75,R
,1555661,470,0,1851,-0.450,0.219,0.963,19.64,16.40,-4.59,R
,1555671,469,0,1847,-0.458,0.247,0.930,10.72,17.28,2.39,R
,1555681,427,0,1849,-0.401,0.249,0.918,-1.19,11.79,0.77,R
,1555691,436,0,1842,-0.392,0.205,0.919,-12.94,2.50,-4.28,R
,1555701,484,0,1846,-0.412,0.183,0.911,-20.55,-4.63,-7.73,R
,1555711,495,0,1847,-0.434,0.156,0.937,-22.18,-7.16,-6.10,R
,1555721,599,0,1843,-0.418,0.137,0.948,-17.89,-5.44,-3.26,R
,1555731,626,0,1842,-0.388,0.130,0.975,-13.37,-2.64,-2.34,R
,1555741,661,0,1846,-0.396,0.130,0.970,-6.55,1.62,0.60,R
,1555751,663,0,1847,-0.398,0.140,0.936,-1.51,8.35,4.18,R
,1555761,663,0,1846,-0.379,0.142,0.918,-1.66,15.50,5.31,R
,1555771,732,0,1846,-0.360,0.132,0.912,-1.49,20.17,0.80,R
,1555781,784,0,1850,-0.402,0.168,0.907,-6.51,21.86,-3.04,R
,1555791,794,0,1849,-0.440,0.141,0.931,-5.37,23.91,-2.97,R
,1555801,854,0,1847,-0.430,0.136,0.965,2.37,24.72,-2.46,R
,1555811,883,0,1843,-0.431,0.130,0.966,4.03,27.77,-3.84,R
,1555821,881,0,1849,-0.416,0.146,0.970,0.45,29.56,-3.62,R
,1555831,878,0,1851,-0.450,0.165,0.982,-1.39,30.41,0.65,R
,1555841,886,0,1854,-0.467,0.179,0.964,-4.38,29.92,5.47,R
,1555851,878,32,1849,-0.453,0.157,0.957,-6.41,24.75,6.12,R
,1555861,909,85,1850,-0.436,0.155,0.912,-9.00,19.11,5.12,R
,1555871,875,55,1846,-0.448,0.144,0.888,-10.21,14.09,4.45,R
,1555881,830,102,1845,-0.422,0.132,0.890,-8.58,14.95,2.63,R
,1555891,848,112,1845,-0.420,0.134,0.872,-7.54,19.53,4.38,R
,1555901,869,112,1843,-0.419,0.119,0.820,-3.23,25.30,4.85,R
,1555911,842,112,1843,-0.436,0.133,0.808,-12.41,30.52,8.80,R
,1555921,853,250,1845,-0.449,0.143,0.843,-13.81,27.21,9.89,R
,1555931,857,287,1843,-0.438,0.126,0.862,-18.35,19.92,8.56,R
,1555941,827,286,1845,-0.440,0.071,0.890,-18.47,10.08,1.96,R
,1555951,814,326,1845,-0.431,0.060,0.900,-19.34,3.40,-1.90,R
,1555961,826,294,1850,-0.424,0.035,0.931,-10.10,2.21,-1.79,R
,1555971,827,356,1845,-0.399,0.055,0.918,-1.26,4.56,-0.22,R
,1555981,831,409,1841,-0.387,0.078,0.895,4.36,11.18,2.59,R
,1555991,809,423,1841,-0.373,0.113,0.892,6.68,17.65,5.00,R
,1556001,752,330,1846,-0.388,0.140,0.901,11.27,23.63,5.89,R
,1556011,671,353,1847,-0.407,0.165,0.912,10.75,26.75,6.62,R
,1556021,626,400,1847,-0.432,0.188,0.922,15.24,27.54,7.12,R
,1556031,560,443,1850,-0.473,0.226,0.896,6.08,27.19,11.60,R
,1556041,543,354,1847,-0.488,0.218,0.962,-4.84,18.73,11.20,R
,1556051,560,419,1855,-0.490,0.232,0.903,-6.35,12.67,9.28,R
,1556061,647,327,1851,-0.533,0.228,0.932,-10.39,9.77,12.28,R
,1556071,657,353,1852,-0.503,0.216,0.947,-10.06,5.91,13.43,R
,1556081,669,377,1851,-0.488,0.249,0.897,-14.38,4.46,11.35,R
,1556091,670,398,1851,-0.493,0.272,0.883,-20.81,-1.10,7.06,R
,1556101,633,410,1846,-0.526,0.301,0.873,-26.41,-9.01,4.48,R
,1556111,657,430,1843,-0.524,0.297,0.862,-28.62,-17.95,4.74,R
,1556121,654,432,1847,-0.483,0.277,0.875,-27.29,-23.40,5.69,R
,1556131,656,439,1851,-0.469,0.277,0.867,-26.90,-22.21,7.93,R
,1556141,654,443,1845,-0.428,0.260,0.871,-28.45,-19.02,8.15,R
,1556151,640,443,1850,-0.399,0.244,0.883,-29.81,-15.63,8.12,R
,1556161,659,367,1851,-0.400,0.212,0.880,-28.09,-12.37,8.88,R
,1556171,645,297,1850,-0.394,0.206,0.886,-29.92,-10.43,11.09,R
,1556181,656,265,1851,-0.390,0.197,0.875,-30.62,-10.26,11.75,R
,1556191,609,230,1849,-0.408,0.179,0.899,-33.20,-11.30,13.32,R
,1556201,649,174,1851,-0.415,0.173,0.898,-34.61,-12.53,15.49,R
,1556211,624,145,1854,-0.414,0.175,0.871,-35.55,-13.94,16.01,R
,1556221,567,111,1854,-0.435,0.186,0.857,-42.45,-19.30,16.15,R
,1556231,617,93,1849,-0.423,0.155,0.875,-46.24,-25.71,16.63,R
,1556241,475,0,1849,-0.420,0.132,0.857,-46.94,-31.44,16.80,R
,1556251,368,0,1854,-0.406,0.116,0.846,-49.63,-33.73,16.24,R
,1556261,547,0,1852,-0.427,0.100,0.916,-61.92,-38.31,14.70,R
,1556271,624,0,1856,-0.403,0.085,1.027,-51.89,-43.15,11.37,R
,1556281,606,0,1849,-0.402,0.025,0.947,-57.10,-38.81,9.90,R
,1556291,656,0,1849,-0.363,-0.016,0.963,-52.29,-35.15,8.54,R
,1556301,699,0,1851,-0.356,-0.030,0.942,-43.13,-25.33,10.74,R
,1556311,720,0,1855,-0.333,0.100,0.913,-28.47,-9.08,19.49,R
,1556321,737,0,1841,-0.349,0.038,0.888,-46.29,7.02,22.99,R
,1556331,739,0,1846,-0.363,-0.000,1.108,-59.26,5.80,11.37,R
,1556341,686,0,1847,-0.360,-0.051,1.093,-47.54,3.60,11.06,R
,1556351,885,0,1844,-0.400,-0.106,0.869,-51.92,0.14,17.80,R
,1556361,935,0,1845,-0.417,-0.032,1.069,-28.15,2.09,14.18,R
,1556371,1023,0,1849,-0.437,0.040,0.985,-30.87,0.78,10.73,R
,1556381,1102,0,1847,-0.396,-0.021,1.066,-36.93,-7.25,1.66,R
,1556391,1143,0,1847,-0.398,-0.053,0.991,-33.72,-15.10,-3.35,R
,1556401,1156,0,1848,-0.395,-0.104,0.931,-19.89,-16.84,-7.58,R
,1556411,1151,0,1845,-0.373,-0.095,0.912,-19.06,-17.19,-11.70,R
,1556421,1234,0,1849,-0.403,-0.046,0.935,-14.35,-17.24,-12.28,R
,1556431,1262,0,1851,-0.385,-0.062,0.946,-7.74,-13.31,-13.27,R
,1556441,1270,0,1846,-0.428,-0.047,0.935,-9.03,-10.58,-11.96,R
,1556451,1301,0,1851,-0.401,-0.075,0.955,-1.42,-9.86,-11.49,R
,1556461,1307,0,1842,-0.414,-0.006,0.944,-1.23,-7.22,-8.62,R
,1556471,1316,0,1854,-0.417,-0.044,0.934,1.18,-5.05,-8.33,R
,1556481,1345,0,1847,-0.438,0.009,0.977,-7.57,-10.15,-8.97,R
,1556491,1375,0,1853,-0.416,0.019,1.033,-6.65,-12.14,-6.30,R
,1556501,1377,0,1843,-0.406,0.031,0.995,-2.67,-12.95,-4.30,R
,1556511,1423,0,1846,-0.365,0.016,0.984,-3.37,-13.01,-6.45,R
,1556521,1446,0,1841,-0.358,0.006,0.974,-8.18,-12.64,-9.04,R
,1556531,1479,0,1847,-0.379,-0.005,1.008,-8.71,-14.31,-10.10,R
,1556541,1520,0,1847,-0.365,-0.040,1.017,-5.61,-14.96,-8.48,R
,1556551,1535,0,1845,-0.315,-0.059,0.984,-2.62,-14.31,-10.34,R
,1556561,1520,0,1846,-0.335,-0.051,0.959,-7.72,-15.42,-11.87,R
,1556571,1535,0,1846,-0.344,-0.073,0.966,-4.36,-17.28,-12.20,R
,1556581,1571,0,1845,-0.328,-0.098,0.964,6.10,-15.74,-11.93,R
,1556591,1603,0,1853,-0.337,-0.029,0.935,15.16,-7.97,-11.04,R
,1556601,1637,0,1851,-0.324,-0.045,0.960,14.94,-0.43,-13.81,R
,1556611,1644,0,1845,-0.379,-0.012,0.960,9.81,6.08,-12.08,R
,1556621,1685,0,1847,-0.396,-0.021,0.965,8.92,9.11,-9.20,R
,1556631,1737,0,1840,-0.361,-0.040,0.964,6.07,5.86,-8.34,R
,1556641,1744,0,1845,-0.377,-0.050,0.939,-1.42,2.23,-8.22,R
,1556651,1757,0,1843,-0.354,-0.021,0.952,-6.96,-4.66,-7.27,R
,1556661,1781,0,1843,-0.340,-0.045,0.905,-7.74,-8.34,-5.67,R
,1556671,1776,0,1845,-0.300,-0.092,0.957,-9.25,-10.18,-4.71,R
,1556681,1863,0,1840,-0.272,-0.073,0.971,3.09,-5.37,-7.95,R
,1556691,1936,0,1846,-0.319,-0.017,0.991,-0.26,-0.23,-4.30,R
,1556701,2001,0,1847,-0.300,-0.036,1.000,2.07,3.57,-2.36,R
,1556711,2037,0,1847,-0.289,-0.031,1.021,1.81,4.06,-5.72,R
,1556721,2089,0,1841,-0.340,-0.025,0.980,-0.55,2.55,-8.07,R
,1556731,2109,0,1844,-0.355,0.005,0.974,4.94,1.60,-6.08,R
,1556741,2130,0,1841,-0.332,-0.000,0.966,4.72,-0.86,-6.92,R
,1556751,2145,0,1843,-0.312,-0.021,0.963,6.34,-0.92,-10.51,R
,1556761,2192,0,1840,-0.324,-0.023,0.955,6.48,0.87,-9.82,R
,1556771,2224,0,1846,-0.337,-0.013,0.926,4.74,0.40,-9.23,R
,1556781,2241,0,1840,-0.332,-0.019,0.933,8.29,-0.00,-9.21,R
,1556791,2265,0,1845,-0.350,-0.003,0.967,9.97,2.78,-8.13,R
,1556801,2289,0,1843,-0.350,-0.024,0.987,6.72,2.75,-8.31,R
,1556811,2307,0,1844,-0.323,-0.036,1.001,12.75,4.06,-10.42,R
,1556821,2338,0,1847,-0.365,-0.059,0.992,10.05,6.53,-8.78,R
,1556831,2352,0,1847,-0.351,-0.040,1.003,10.55,6.72,-6.01,R
,1556841,2389,0,1847,-0.357,-0.018,1.007,9.90,9.54,-3.41,R
,1556851,2397,0,1847,-0.373,-0.020,0.955,3.78,10.63,-2.77,R
,1556861,2397,0,1846,-0.385,-0.014,0.947,3.88,10.17,-1.87,R
,1556871,2416,0,1841,-0.391,-0.005,0.944,3.62,9.62,-1.73,R
,1556881,2415,0,1839,-0.428,0.023,0.930,4.92,9.86,0.24,R
,1556891,2415,0,1843,-0.437,0.039,0.928,1.96,7.94,1.35,R
,1556901,2430,0,1840,-0.428,0.029,0.930,-0.41,5.02,-0.54,R
,1556911,2407,0,1842,-0.441,0.026,0.924,-4.59,1.19,-2.05,R
,1556921,2409,0,1845,-0.426,0.001,0.944,-9.52,-3.05,-2.05,R
,1556931,2384,0,1844,-0.417,-0.013,0.935,-6.19,-5.33,-0.53,R
,1556941,2398,0,1841,-0.379,-0.006,0.946,-4.68,-6.31,0.89,R
,1556951,2363,0,1845,-0.362,-0.012,0.944,-3.10,-5.88,1.29,R
,1556961,2398,0,1840,-0.356,-0.005,0.932,-3.29,-5.73,2.70,R
,1556971,2352,0,1842,-0.340,-0.012,0.931,-2.21,-7.54,1.96,R
,1556981,2352,0,1841,-0.355,-0.007,0.926,-0.96,-9.82,1.28,R
,1556991,2352,0,1842,-0.351,-0.008,0.938,-0.22,-11.86,1.28,R
,1557001,2351,0,1840,-0.374,0.011,0.957,-5.11,-15.05,0.97,R
,1557011,2358,0,1845,-0.380,0.016,0.962,-8.64,-15.50,2.79,R
,1557021,2352,0,1845,-0.348,-0.006,0.973,-11.03,-16.02,1.83,R
,1557031,2352,0,1849,-0.343,-0.034,1.019,-11.43,-14.24,0.56,R
,1557041,2349,0,1845,-0.324,-0.085,1.026,-9.92,-11.22,0.85,R
,1557051,2352,0,1843,-0.309,-0.077,1.038,-7.57,-4.63,2.62,R
,1557061,2350,0,1845,-0.273,-0.079,1.035,0.25,4.95,2.44,R
,1557071,2343,0,1840,-0.320,-0.042,1.031,1.13,10.70,3.12,R
,1557081,2353,0,1846,-0.324,-0.034,1.010,-0.93,12.79,3.15,R
,1557091,2337,0,1845,-0.349,-0.024,1.006,1.90,11.34,3.34,R
,1557101,2340,0,1842,-0.351,-0.009,0.986,2.51,7.97,2.99,R
,1557111,2306,0,1850,-0.336,-0.012,0.964,2.58,4.29,3.03,R
,1557121,2278,0,1846,-0.332,-0.012,0.945,0.90,1.07,2.01,R
,1557131,2260,0,1843,-0.337,-0.007,0.940,3.50,-0.00,2.05,R
,1557141,2257,0,1845,-0.335,-0.011,0.940,4.17,0.60,3.52,R
,1557151,2256,0,1846,-0.335,-0.012,0.931,1.12,0.46,2.89,R
,1557161,2257,0,1850,-0.355,-0.032,0.945,0.05,1.77,2.09,R
,1557171,2255,0,1850,-0.381,-0.022,0.939,2.75,3.79,4.38,R
,1557181,2225,0,1849,-0.365,-0.014,0.962,3.18,4.70,5.78,R
,1557191,2243,0,1846,-0.363,-0.016,0.972,4.43,5.98,5.57,R
,1557201,2210,0,1845,-0.354,-0.011,0.969,5.38,8.81,4.88,R
,1557211,2188,0,1842,-0.363,-0.008,0.961,4.17,9.98,4.71,R
,1557221,2161,0,1847,-0.354,0.004,0.962,5.47,9.07,3.73,R
,1557231,2155,0,1850,-0.366,0.027,0.967,-0.81,5.68,3.25,R
,1557241,2134,0,1841,-0.348,0.006,0.958,1.15,0.67,2.89,R
,1557251,2114,0,1843,-0.330,-0.019,0.936,-1.49,-3.47,1.64,R
,1557261,2125,0,1843,-0.355,-0.033,0.946,-1.45,-4.44,-0.42,R
,1557271,2103,0,1845,-0.355,-0.045,0.968,-0.61,-3.74,1.08,R
,1557281,2097,0,1845,-0.346,-0.039,0.982,2.54,-3.57,1.47,R
,1557291,2085,0,1845,-0.355,-0.008,0.967,5.79,-2.28,2.38,R
,1557301,2068,0,1841,-0.312,-0.013,0.970,7.76,-0.66,2.50,R
,1557311,2064,0,1841,-0.309,-0.028,0.969,4.22,0.29,-1.37,R
,1557321,2045,0,1843,-0.355,-0.063,0.983,1.01,1.05,-3.85,R
,1557331,2039,0,1847,-0.364,-0.076,0.992,6.55,4.38,-2.89,R
,1557341,2031,0,1844,-0.400,-0.059,0.995,7.36,7.05,2.04,R
,1557351,2031,0,1847,-0.359,-0.083,0.999,12.26,8.40,1.70,R
,1557361,1968,0,1845,-0.376,-0.074,0.999,13.91,10.87,1.72,R
,1557371,1933,0,1843,-0.363,-0.046,0.985,13.52,11.91,2.38,R
,1557381,1906,0,1842,-0.375,-0.008,0.969,13.33,12.78,3.14,R
,1557391,1902,0,1842,-0.353,0.007,0.947,13.64,10.73,3.29,R
,1557401,1879,0,1842,-0.346,0.022,0.919,10.13,9.24,1.69,R
,1557411,1852,0,1841,-0.372,0.014,0.937,8.54,7.10,-1.58,R
,1557421,1837,0,1840,-0.379,-0.014,0.933,11.01,5.47,-3.06,R
,1557431,1825,0,1843,-0.377,-0.015,0.929,12.61,4.31,-2.59,R
,1557441,1830,0,1843,-0.371,-0.017,0.948,18.29,3.43,-2.33,R
,1557451,1823,0,1838,-0.355,-0.011,0.953,18.14,3.66,-2.22,R
,1557461,1845,0,1837,-0.343,0.002,0.979,16.68,5.59,-3.96,R
,1557471,1835,0,1840,-0.382,0.021,0.966,19.09,8.58,-4.17,R
,1557481,1835,0,1839,-0.379,0.034,0.962,20.43,10.92,-5.43,R
,1557491,1843,0,1839,-0.417,0.056,0.944,19.78,12.92,-5.23,R
,1557501,1842,0,1842,-0.421,0.076,0.919,16.61,12.50,-4.95,R
,1557511,1835,0,1845,-0.455,0.087,0.915,12.72,10.41,-4.05,R
,1557521,1835,0,1840,-0.453,0.097,0.909,9.82,6.20,-3.64,R
,1557531,1836,0,1843,-0.455,0.114,0.925,5.35,2.72,-2.05,R
,1557541,1835,0,1842,-0.443,0.114,0.930,4.42,-0.24,-0.89,R
,1557551,1808,0,1840,-0.428,0.109,0.924,0.90,-3.56,-1.01,R
,1557561,1814,0,1840,-0.433,0.105,0.916,-0.82,-5.37,-0.08,R
,1557571,1776,0,1843,-0.423,0.091,0.923,-2.99,-7.21,1.63,R
,1557581,1750,0,1840,-0.413,0.088,0.938,-3.68,-7.79,3.43,R
,1557591,1712,0,1840,-0.420,0.093,0.936,-6.07,-8.24,4.19,R
,1557601,1713,0,1842,-0.405,0.083,0.942,-8.16,-7.83,4.15,R
,1557611,1681,0,1840,-0.397,0.070,0.954,-11.43,-8.47,4.67,R
,1557621,1671,0,1845,-0.393,0.054,0.968,-14.30,-10.64,4.83,R
,1557631,1646,0,1845,-0.388,0.055,0.959,-14.47,-11.83,4.89,R
,1557641,1637,0,1845,-0.391,0.065,0.944,-16.67,-12.08,5.96,R
,1557651,1607,0,1845,-0.370,0.042,0.945,-18.94,-12.02,6.42,R
,1557661,1639,0,1842,-0.363,0.028,0.947,-17.89,-9.94,5.60,R
,1557671,1662,0,1843,-0.355,-0.002,0.997,-17.57,-8.34,3.86,R
,1557681,1647,0,1851,-0.378,0.014,0.957,-17.72,-6.43,4.57,R
,1557691,1635,0,1843,-0.362,0.010,0.966,-15.37,-8.95,4.01,R
,1557701,1626,0,1841,-0.395,0.036,0.948,-18.35,-9.73,5.32,R
,1557711,1615,0,1848,-0.354,0.033,0.955,-19.35,-11.02,4.62,R
,1557721,1647,0,1846,-0.353,0.020,0.970,-20.59,-12.55,3.46,R
,1557731,1616,0,1844,-0.330,0.008,0.973,-19.93,-14.26,2.27,R
,1557741,1616,0,1846,-0.315,0.001,0.974,-20.87,-13.47,1.66,R
,1557751,1618,0,1845,-0.304,-0.012,0.988,-19.92,-13.13,1.17,R
,1557761,1630,0,1845,-0.310,-0.023,0.981,-21.92,-12.57,1.28,R
,1557771,1653,0,1845,-0.308,-0.037,0.962,-20.65,-10.46,2.30,R
,1557781,1652,0,1843,-0.317,-0.043,0.971,-21.10,-8.66,2.63,R
,1557791,1652,0,1849,-0.333,-0.039,0.984,-21.26,-7.60,2.82,R
,1557801,1680,0,1846,-0.344,-0.029,0.987,-19.05,-6.82,3.11,R
,1557811,1667,0,1849,-0.352,-0.010,0.987,-19.52,-7.40,2.79,R
,1557821,1653,0,1844,-0.358,-0.004,0.976,-20.96,-7.31,1.92,R
,1557831,1632,0,1845,-0.337,-0.035,0.969,-20.71,-7.91,-0.25,R
,1557841,1611,0,1850,-0.352,-0.039,0.956,-20.87,-8.26,-0.91,R
,1557851,1618,0,1846,-0.344,-0.054,0.939,-17.66,-8.47,-1.38,R
,1557861,1616,0,1845,-0.349,-0.056,0.926,-15.86,-7.89,-0.77,R
,1557871,1620,0,1840,-0.322,-0.072,0.937,-17.87,-7.95,-2.89,R
,1557881,1634,0,1844,-0.345,-0.080,0.961,-18.30,-8.38,-4.77,R
,1557891,1619,0,1850,-0.343,-0.081,0.985,-14.51,-9.15,-4.66,R
,1557901,1631,0,1845,-0.330,-0.063,1.000,-12.21,-8.52,-5.11,R
,1557911,1624,0,1846,-0.316,-0.063,0.999,-12.36,-8.40,-7.46,R
,1557921,1647,0,1846,-0.324,-0.076,0.990,-15.98,-9.24,-7.75,R
,1557931,1659,0,1845,-0.317,-0.093,0.977,-16.13,-9.39,-7.20,R
,1557941,1649,0,1846,-0.310,-0.103,0.963,-14.87,-7.88,-5.69,R
,1557951,1653,0,1846,-0.303,-0.103,0.960,-15.06,-6.32,-4.51,R
,1557961,1655,0,1843,-0.300,-0.094,0.943,-15.74,-5.65,-4.49,R
,1557971,1677,0,1851,-0.324,-0.074,0.943,-18.30,-6.41,-3.73,R
,1557981,1674,0,1846,-0.303,-0.089,0.956,-19.08,-9.39,-4.57,R
,1557991,1680,0,1849,-0.304,-0.097,0.958,-15.98,-11.04,-5.14,R
,1558001,1679,0,1840,-0.303,-0.089,0.975,-11.64,-11.30,-4.72,R
,1558011,1677,0,1849,-0.293,-0.077,0.978,-8.07,-10.92,-5.18,R
,1558021,1674,0,1849,-0.306,-0.068,0.977,-6.13,-9.08,-5.84,R
,1558031,1690,0,1850,-0.306,-0.053,0.974,-5.54,-5.02,-3.50,R
,1558041,1703,0,1847,-0.277,-0.080,0.991,-7.11,-1.59,-3.24,R
,1558051,1662,0,1846,-0.292,-0.102,0.987,-9.84,-0.08,-2.57,R
,1558061,1726,0,1846,-0.290,-0.109,0.998,-12.26,-0.37,-1.12,R
,1558071,1721,0,1850,-0.278,-0.125,0.992,-12.07,-1.39,-0.98,R
,1558081,1726,0,1847,-0.278,-0.126,0.975,-13.60,-2.24,-0.89,R
,1558091,1699,0,1845,-0.284,-0.125,0.970,-14.29,-2.63,-1.53,R
,1558101,1695,0,1846,-0.306,-0.112,0.973,-12.70,-2.15,-1.93,R
,1558111,1691,0,1843,-0.309,-0.113,0.970,-7.97,1.57,-2.46,R
,1558121,1705,0,1847,-0.310,-0.111,0.977,-3.55,3.57,-3.76,R
,1558131,1686,0,1853,-0.319,-0.121,0.973,-3.74,2.17,-4.65,R
,1558141,1695,0,1851,-0.384,-0.127,1.030,23.97,-5.22,0.96,R
,1558151,1683,0,1843,-0.336,-0.100,0.969,1.70,3.83,-5.98,R
,1558161,1690,0,1844,-0.325,-0.105,0.992,-0.58,1.22,-6.08,R
,1558171,1697,0,1845,-0.323,-0.106,0.986,-1.31,0.24,-5.67,R
,1558181,1697,0,1851,-0.334,-0.109,0.980,-3.66,-0.08,-6.33,R
,1558191,1693,0,1850,-0.330,-0.113,0.995,-5.55,-0.06,-6.30,R
,1558201,1693,0,1845,-0.356,-0.107,0.985,-6.94,0.98,-4.85,R
,1558211,1686,0,1854,-0.352,-0.106,0.995,-5.78,0.96,-4.05,R
,1558221,1690,0,1849,-0.325,-0.108,0.997,-6.21,1.04,-3.85,R
,1558231,1680,0,1850,-0.320,-0.104,1.000,-2.77,3.94,-2.86,R
,1558241,1719,0,1850,-0.337,-0.097,1.008,-1.60,7.30,-2.45,R
,1558251,1718,0,1847,-0.336,-0.086,0.999,-1.55,7.50,-1.09,R
,1558261,1714,0,1849,-0.335,-0.083,0.976,-2.41,6.21,-0.77,R
,1558271,1715,0,1846,-0.342,-0.084,0.941,-4.48,3.98,-0.37,R
,1558281,1697,0,1846,-0.330,-0.094,0.940,-5.66,1.45,-0.75,R
,1558291,1686,0,1845,-0.318,-0.098,0.940,-4.61,-0.43,-0.56,R
,1558301,1699,0,1845,-0.323,-0.082,0.940,-3.25,-1.19,1.40,R
,1558311,1696,0,1843,-0.309,-0.063,0.952,-2.42,-1.86,1.72,R
,1558321,1702,0,1843,-0.300,-0.058,0.960,-3.10,-1.86,1.47,R
,1558331,1703,0,1849,-0.310,-0.043,0.977,-2.96,-2.15,1.64,R
,1558341,1698,0,1844,-0.305,-0.036,0.977,-3.49,-1.85,1.89,R
,1558351,1699,0,1843,-0.308,-0.046,0.990,-7.28,-2.70,1.58,R
,1558361,1696,0,1844,-0.310,-0.064,0.988,-11.22,-3.68,0.59,R
,1558371,1696,0,1846,-0.306,-0.093,0.979,-15.51,-5.19,0.76,R
,1558381,1698,0,1849,-0.303,-0.119,0.968,-19.14,-6.61,1.03,R
,1558391,1695,0,1845,-0.298,-0.154,0.952,-17.80,-6.14,2.10,R
,1558401,1700,0,1843,-0.293,-0.159,0.950,-15.32,-3.51,3.15,R
,1558411,1695,0,1849,-0.310,-0.157,0.973,-13.02,-1.42,3.09,R
,1558421,1690,0,1846,-0.325,-0.141,0.972,-9.95,-0.87,3.29,R
,1558431,1729,0,1842,-0.318,-0.132,0.974,-9.90,-2.35,2.79,R
,1558441,1741,0,1850,-0.331,-0.122,0.980,-9.60,-3.40,2.16,R
,1558451,1751,0,1843,-0.322,-0.129,0.981,-11.14,-5.30,-0.05,R
,1558461,1773,0,1847,-0.325,-0.147,0.990,-10.81,-6.28,-1.84,R
,1558471,1783,0,1847,-0.314,-0.173,0.985,-9.68,-6.37,-2.34,R
,1558481,1792,0,1849,-0.298,-0.207,0.992,-4.36,-4.72,-2.46,R
,1558491,1808,0,1847,-0.304,-0.202,0.990,-0.38,-2.46,-2.54,R
,1558501,1815,0,1847,-0.305,-0.209,0.961,4.95,2.15,-0.74,R
,1558511,1826,0,1850,-0.310,-0.187,0.958,5.03,5.11,1.22,R
,1558521,1823,0,1850,-0.327,-0.164,0.955,3.42,4.67,2.65,R
,1558531,1828,0,1850,-0.319,-0.147,0.965,1.53,1.66,2.19,R
,1558541,1889,0,1843,-0.316,-0.135,0.960,0.03,-0.72,1.03,R
,1558551,1882,0,1844,-0.328,-0.123,0.969,-0.35,-3.11,-0.42,R
,1558561,1931,0,1851,-0.312,-0.118,0.971,3.70,-4.41,-3.04,R
,1558571,1922,0,1850,-0.317,-0.124,0.965,3.96,-4.73,-4.85,R
,1558581,1973,0,1850,-0.293,-0.143,0.949,4.86,-3.97,-6.42,R
,1558591,2011,0,1853,-0.309,-0.132,0.983,5.97,-1.13,-3.73,R
,1558601,2032,0,1853,-0.292,-0.160,0.996,6.66,0.34,-3.18,R
,1558611,2033,0,1857,-0.309,-0.152,0.978,4.28,0.60,-2.19,R
,1558621,2038,0,1855,-0.293,-0.164,0.969,4.65,0.18,-2.89,R
,1558631,2034,0,1855,-0.318,-0.155,0.965,5.56,0.56,-3.04,R
,1558641,2041,0,1854,-0.329,-0.157,0.977,5.79,-0.81,-3.79,R
,1558651,2060,0,1850,-0.323,-0.146,0.978,9.18,0.06,-5.21,R
,1558661,2066,0,1855,-0.339,-0.134,0.989,11.42,2.81,-5.64,R
,1558671,2065,0,1853,-0.349,-0.127,0.987,12.54,4.00,-5.18,R
,1558681,2110,0,1856,-0.325,-0.141,0.983,14.55,3.92,-6.05,R
,1558691,2117,0,1855,-0.325,-0.146,0.974,11.62,2.93,-6.42,R
,1558701,2128,0,1853,-0.302,-0.177,1.001,12.42,3.13,-7.53,R
,1558711,2133,0,1854,-0.318,-0.169,0.980,13.70,4.26,-6.43,R
,1558721,2142,0,1853,-0.328,-0.150,0.984,16.39,6.55,-3.53,R
,1558731,2162,0,1851,-0.317,-0.149,0.990,16.43,8.60,-1.49,R
,1558741,2187,0,1853,-0.320,-0.121,0.969,17.70,11.47,-0.75,R
,1558751,2217,0,1853,-0.329,-0.106,0.952,18.83,12.66,0.85,R
,1558761,2233,0,1844,-0.302,-0.098,0.969,17.24,10.84,0.16,R
,1558771,2233,0,1850,-0.325,-0.092,0.973,14.74,8.26,-0.43,R
,1558781,2235,0,1845,-0.300,-0.096,0.951,13.36,6.00,-1.35,R
,1558791,2239,0,1847,-0.298,-0.108,0.951,15.36,5.39,-1.99,R
,1558801,2250,0,1847,-0.303,-0.092,0.952,15.76,4.76,-2.59,R
,1558811,2257,0,1849,-0.306,-0.093,0.953,14.57,4.14,-1.81,R
,1558821,2255,0,1847,-0.313,-0.075,0.943,14.37,4.31,-0.53,R
,1558831,2258,0,1849,-0.308,-0.070,0.959,14.08,4.37,-1.01,R
,1558841,2275,0,1850,-0.320,-0.068,0.979,12.60,2.61,-2.37,R
,1558851,2279,0,1846,-0.311,-0.073,0.979,12.98,1.16,-3.18,R
,1558861,2303,0,1846,-0.320,-0.072,0.997,14.02,0.35,-3.18,R
,1558871,2320,0,1843,-0.297,-0.082,1.000,14.07,-0.57,-4.10,R
,1558881,2341,0,1842,-0.311,-0.081,1.010,11.30,0.64,-3.78,R
,1558891,2335,0,1847,-0.291,-0.099,1.003,12.84,2.17,-3.15,R
,1558901,2347,0,1850,-0.273,-0.119,1.000,13.76,4.41,-3.52,R
,1558911,2347,0,1846,-0.299,-0.101,1.032,14.68,7.30,-2.48,R
,1558921,2360,0,1847,-0.302,-0.083,1.020,20.00,12.17,0.53,R
,1558931,2357,0,1849,-0.326,-0.073,1.000,15.90,12.99,0.54,R
,1558941,2373,0,1843,-0.344,-0.062,0.986,14.83,10.26,1.51,R
,1558951,2387,0,1847,-0.314,-0.051,0.976,17.04,8.23,0.45,R
,1558961,2383,0,1846,-0.340,-0.014,0.952,15.74,8.00,0.60,R
,1558971,2376,0,1843,-0.333,-0.017,0.941,15.15,7.53,1.11,R
,1558981,2381,0,1845,-0.334,-0.014,0.936,13.13,6.67,0.31,R
,1558991,2385,0,1845,-0.354,-0.015,0.926,13.04,5.42,0.21,R
,1559001,2371,0,1840,-0.355,-0.013,0.924,13.70,2.37,-0.59,R
,1559011,2364,0,1844,-0.348,-0.025,0.918,14.03,0.49,-1.98,R
,1559021,2331,0,1843,-0.351,-0.010,0.910,15.38,1.43,-1.76,R
,1559031,2325,0,1846,-0.335,0.002,0.931,14.20,-0.72,-1.61,R
,1559041,2323,0,1841,-0.312,-0.021,0.953,10.08,-4.40,-3.35,R
,1559051,2320,0,1840,-0.317,-0.030,0.986,9.87,-5.30,-4.08,R
,1559061,2326,0,1843,-0.310,-0.033,1.006,10.71,-4.28,-4.02,R
,1559071,2325,0,1840,-0.344,-0.051,0.980,9.73,-3.37,-3.24,R
,1559081,2352,0,1839,-0.323,-0.060,0.968,10.00,-1.34,-3.00,R
,1559091,2349,0,1841,-0.341,-0.075,1.003,8.57,0.98,-3.30,R
,1559101,2351,0,1844,-0.350,-0.083,1.023,13.44,3.18,-1.26,R
,1559111,2340,0,1845,-0.347,-0.059,1.006,14.84,5.08,-0.34,R
,1559121,2342,0,1842,-0.379,-0.024,0.984,12.23,6.08,-1.33,R
,1559131,2347,0,1841,-0.374,-0.050,0.978,13.62,3.22,-1.90,R
,1559141,2346,0,1841,-0.390,-0.029,0.966,13.33,3.18,-2.40,R
,1559151,2337,0,1840,-0.384,-0.035,0.971,15.50,2.90,-3.61,R
,1559161,2340,0,1840,-0.378,-0.038,0.974,16.58,2.84,-5.55,R
,1559171,2347,0,1844,-0.385,-0.035,0.988,19.49,2.99,-6.71,R
,1559181,2352,0,1842,-0.385,-0.021,0.975,20.36,3.60,-6.85,R
,1559191,2355,0,1842,-0.370,-0.024,0.984,22.61,4.34,-6.80,R
,1559201,2368,0,1846,-0.373,0.015,0.970,19.99,5.04,-6.19,R
,1559211,2369,0,1846,-0.357,0.019,0.979,17.73,3.98,-5.64,R
,1559221,2375,0,1850,-0.345,0.029,0.970,14.68,3.11,-5.53,R
,1559231,2373,0,1847,-0.345,0.033,0.950,11.96,1.13,-5.04,R
,1559241,2379,0,1843,-0.341,0.051,0.962,7.52,0.27,-4.19,R
,1559251,2372,0,1846,-0.348,0.042,0.957,10.16,0.87,-2.16,R
,1559261,2380,0,1842,-0.335,0.061,0.956,6.03,1.97,-1.33,R
,1559271,2374,0,1847,-0.330,0.058,0.960,5.18,1.69,-1.52,R
,1559281,2384,0,1841,-0.327,0.050,0.940,4.16,0.50,-1.11,R
,1559291,2384,0,1847,-0.296,0.047,0.959,0.86,-0.26,-1.52,R
,1559301,2389,0,1843,-0.313,0.034,0.967,2.23,1.54,-1.46,R
,1559311,2398,0,1846,-0.326,0.047,0.973,2.60,3.11,0.41,R
,1559321,2395,0,1843,-0.325,0.060,0.979,1.56,2.69,0.33,R
,1559331,2392,0,1843,-0.322,0.036,0.976,-1.87,0.34,-0.95,R
,1559341,2373,0,1842,-0.337,0.022,0.976,-3.42,-2.05,-1.33,R
,1559351,2390,0,1840,-0.330,0.007,0.996,-1.58,-2.03,-0.51,R
,1559361,2394,0,1839,-0.325,0.006,0.993,-1.31,-1.15,-0.54,R
,1559371,2393,0,1846,-0.331,0.005,0.974,-0.51,-0.95,-0.53,R
,1559381,2387,0,1840,-0.333,0.008,0.974,0.92,0.92,0.34,R
,1559391,2387,0,1841,-0.337,0.009,0.977,2.22,4.01,0.44,R
,1559401,2391,0,1840,-0.350,0.006,0.957,0.42,4.17,0.15,R
,1559411,2387,0,1841,-0.352,-0.003,0.953,1.06,1.37,-1.61,R
,1559421,2378,0,1841,-0.365,0.004,0.939,2.11,-0.61,-1.64,R
,1559431,2371,0,1845,-0.375,0.040,0.973,2.19,1.95,0.34,R
,1559441,2371,0,1840,-0.361,0.040,0.983,2.42,4.41,0.02,R
,1559451,2379,0,1842,-0.364,0.010,0.974,0.84,3.88,-1.93,R
,1559461,2374,0,1846,-0.372,-0.009,0.975,2.45,2.00,-1.99,R
,1559471,2378,0,1844,-0.362,-0.004,0.955,3.85,0.06,-1.59,R
,1559481,2369,0,1840,-0.347,-0.006,0.951,3.64,-1.89,-2.02,R
,1559491,2359,0,1840,-0.368,0.011,0.947,1.44,-2.32,-1.41,R
,1559501,2366,0,1840,-0.352,0.023,0.942,2.08,-2.46,-0.20,R
,1559511,2358,0,1842,-0.343,0.029,0.950,2.25,-1.15,-0.01,R
,1559521,2366,0,1840,-0.345,0.019,0.958,2.77,-0.72,-0.20,R
,1559531,2361,0,1842,-0.340,0.010,0.956,5.56,-1.27,-0.34,R
,1559541,2330,0,1841,-0.336,0.000,0.941,6.60,-2.18,-1.55,R
,1559551,2303,0,1846,-0.349,0.003,0.929,4.29,-4.63,-2.82,R
,1559561,2304,0,1843,-0.364,0.014,0.942,9.01,-3.88,0.04,R
,1559571,2302,0,1843,-0.328,0.043,0.964,7.33,1.14,-0.10,R
,1559581,2304,0,1840,-0.356,0.068,0.996,4.45,3.19,-0.49,R
,1559591,2301,0,1840,-0.349,0.049,1.010,3.97,2.26,-1.49,R
,1559601,2304,0,1845,-0.352,0.035,1.006,1.94,2.67,-1.79,R
,1559611,2305,0,1847,-0.363,0.026,1.000,1.23,2.92,-1.15,R
,1559621,2320,0,1855,-0.355,0.017,0.988,0.23,2.18,-1.78,R
,1559631,2320,0,1845,-0.354,0.003,0.967,-0.13,1.50,-2.49,R
,1559641,2302,0,1840,-0.355,0.006,0.967,1.47,0.81,-2.13,R
,1559651,2295,0,1843,-0.357,0.018,0.952,2.32,2.00,-1.41,R
,1559661,2292,0,1840,-0.348,0.022,0.963,3.18,2.78,-1.79,R
,1559671,2288,0,1844,-0.367,0.019,0.975,3.59,2.03,-2.42,R
,1559681,2271,0,1846,-0.366,0.016,0.982,4.08,0.43,-2.63,R
,1559691,2266,0,1843,-0.372,0.029,0.984,3.96,0.46,-2.39,R
,1559701,2253,0,1846,-0.369,0.024,0.987,1.45,0.64,-2.25,R
,1559711,2256,0,1841,-0.369,0.020,0.989,0.43,0.58,-2.19,R
,1559721,2237,0,1846,-0.363,0.017,0.971,-0.71,-0.11,-2.43,R
,1559731,2237,0,1844,-0.354,0.021,0.950,-2.61,-1.45,-1.14,R
,1559741,2205,0,1845,-0.331,0.022,0.928,-4.19,-2.43,-2.31,R
,1559751,2224,0,1842,-0.335,0.018,0.918,-5.48,-2.29,-2.30,R
,1559761,2220,0,1845,-0.333,0.013,0.942,-3.90,-2.38,-2.46,R
,1559771,2231,0,1843,-0.335,0.018,0.937,-4.07,-2.05,-2.83,R
,1559781,2224,0,1843,-0.334,0.013,0.968,-4.62,-2.99,-3.69,R
,1559791,2225,0,1842,-0.341,0.005,0.968,-3.16,-3.50,-4.68,R
,1559801,2229,0,1847,-0.350,0.002,0.980,-2.10,-3.08,-4.04,R
,1559811,2225,0,1847,-0.339,0.007,0.977,-0.07,-2.14,-4.88,R
,1559821,2224,0,1841,-0.361,0.004,0.986,0.63,-1.27,-5.46,R
,1559831,2224,0,1840,-0.361,0.014,0.979,2.87,-1.47,-5.15,R
,1559841,2224,0,1842,-0.339,0.002,0.978,4.37,-1.24,-5.58,R
,1559851,2225,0,1839,-0.341,-0.003,0.975,4.39,-0.63,-5.58,R
,1559861,2224,0,1842,-0.346,0.007,0.960,6.69,0.99,-5.41,R
,1559871,2224,0,1841,-0.358,0.016,0.970,6.14,1.69,-5.23,R
,1559881,2224,0,1840,-0.356,0.029,0.967,6.16,1.13,-4.98,R
,1559891,2227,0,1840,-0.344,0.042,0.964,4.55,0.44,-5.78,R
,1559901,2224,0,1840,-0.352,0.048,0.975,4.20,-0.03,-5.35,R
,1559911,2225,0,1838,-0.331,0.054,0.975,4.84,-0.17,-5.01,R
,1559921,2224,0,1844,-0.325,0.055,0.972,3.64,0.32,-5.09,R
,1559931,2225,0,1840,-0.320,0.050,0.965,2.72,0.84,-3.95,R
,1559941,2235,0,1846,-0.326,0.045,0.967,2.51,2.34,-3.24,R
,1559951,2250,0,1850,-0.351,0.045,0.970,-0.01,3.19,-3.33,R
,1559961,2257,0,1842,-0.345,0.021,0.985,-1.23,2.78,-3.40,R
,1559971,2277,0,1849,-0.371,0.035,0.997,-0.73,2.76,-3.20,R
,1559981,2256,0,1847,-0.367,0.045,0.983,-0.76,2.38,-3.20,R
,1559991,2272,0,1851,-0.351,0.036,0.973,-1.35,1.68,-3.96,R
,1560001,2259,0,1850,-0.361,0.046,0.955,-1.77,1.65,-4.33,R
,1560011,2263,0,1854,-0.354,0.049,0.943,-1.43,1.10,-3.87,R
,1560021,2276,0,1851,-0.347,0.037,0.926,-1.75,0.27,-3.33,R
,1560031,2271,0,1858,-0.347,0.040,0.940,-1.58,-0.23,-3.20,R
,1560041,2289,0,1860,-0.334,0.037,0.947,-0.50,-0.76,-2.65,R
,1560051,2309,0,1857,-0.338,0.034,0.962,-0.64,-1.11,-1.98,R
,1560061,2318,0,1856,-0.358,0.047,0.977,-2.38,-1.85,-1.69,R
,1560071,2320,0,1856,-0.364,0.035,0.982,-4.03,-3.74,-2.05,R
,1560081,2348,0,1851,-0.353,0.010,0.987,-5.66,-5.36,-2.95,R
,1560091,2363,0,1855,-0.377,0.016,0.987,-6.16,-5.07,-2.49,R
,1560101,2352,0,1857,-0.374,0.014,0.980,-4.42,-3.74,-2.08,R
,1560111,2361,0,1858,-0.392,0.016,0.972,-6.24,-3.04,-0.71,R
,1560121,2363,0,1857,-0.380,0.006,0.942,-7.46,-2.76,0.34,R
,1560131,2367,0,1855,-0.367,-0.026,0.951,-7.32,-2.44,-0.40,R
,1560141,2374,0,1852,-0.388,-0.024,0.963,-6.94,-1.22,0.27,R
,1560151,2386,0,1851,-0.372,-0.039,0.967,-1.80,1.48,1.63,R
,1560161,2409,0,1855,-0.377,-0.029,0.969,-1.58,3.83,1.76,R
,1560171,2429,0,1856,-0.377,-0.027,0.980,-1.58,3.28,2.04,R
,1560181,2428,0,1851,-0.387,-0.010,0.962,-4.91,-0.44,1.90,R
,1560191,2429,0,1847,-0.404,0.004,0.959,-7.14,-4.75,2.79,R
,1560201,2435,0,1846,-0.374,0.012,0.961,-11.46,-9.18,3.11,R
,1560211,2448,0,1854,-0.330,-0.007,0.968,-15.19,-13.13,1.29,R
,1560221,2448,0,1852,-0.332,0.004,0.975,-13.19,-12.53,1.72,R
,1560231,2442,0,1857,-0.294,-0.001,0.958,-9.51,-10.20,2.62,R
,1560241,2433,0,1853,-0.266,-0.011,0.948,-6.00,-6.41,1.41,R
,1560251,2436,0,1853,-0.286,-0.018,0.947,-5.23,-5.31,1.38,R
,1560261,2457,0,1853,-0.276,-0.012,0.948,-0.67,-3.69,1.66,R
,1560271,2480,0,1853,-0.294,0.013,0.971,3.23,-1.01,1.44,R
,1560281,2489,0,1854,-0.300,0.045,0.972,2.40,-1.51,-0.24,R
,1560291,2511,0,1856,-0.310,0.046,0.991,1.30,-2.87,-2.22,R
,1560301,2512,0,1853,-0.316,0.034,1.005,0.75,-3.82,-3.88,R
,1560311,2512,0,1855,-0.281,-0.002,1.027,3.12,-3.54,-7.41,R
,1560321,2526,0,1856,-0.305,0.009,1.012,5.99,0.64,-5.33,R
,1560331,2535,0,1857,-0.301,0.023,0.997,7.93,4.98,-2.46,R
,1560341,2554,0,1853,-0.274,-0.012,1.020,3.16,4.73,-4.68,R
,1560351,2559,0,1853,-0.414,0.038,1.015,9.10,15.30,6.85,R
,1560361,2559,0,1854,-0.254,0.066,0.996,9.70,7.95,-0.30,R
,1560371,2593,0,1856,-0.405,0.055,0.969,1.90,5.08,2.96,R
,1560381,2554,0,1854,-0.372,0.074,0.928,-10.73,1.31,3.25,R
,1560391,2627,0,1848,-0.407,0.097,0.932,-7.60,-1.79,4.36,R
,1560401,2628,0,1853,-0.342,0.066,0.927,-9.10,-5.31,3.55,R
,1560411,2621,0,1853,-0.389,0.090,0.924,-16.93,-7.21,2.47,R
,1560421,2633,0,1846,-0.337,0.032,0.963,-14.68,-8.76,4.19,R
,1560431,2635,0,1848,-0.326,0.003,0.959,-13.20,-5.42,4.77,R
,1560441,2634,0,1849,-0.283,-0.028,0.971,-13.51,-3.54,3.46,R
,1560451,2641,0,1853,-0.308,-0.041,0.976,-10.97,-0.12,4.94,R
,1560461,2643,0,1845,-0.305,-0.029,0.988,-6.67,4.44,5.32,R
,1560471,2627,0,1847,-0.300,-0.067,1.003,-1.05,4.44,5.34,R
,1560481,2643,0,1851,-0.326,-0.021,0.982,-1.43,4.44,1.83,R
,1560491,2594,0,1847,-0.340,-0.022,0.997,1.56,1.08,2.79,R
,1560501,2559,0,1845,-0.346,-0.013,0.962,-0.06,0.44,3.17,R
,1560511,2526,0,1850,-0.353,0.005,0.965,-1.37,1.14,2.56,R
,1560521,2496,0,1849,-0.374,0.009,0.960,3.29,3.57,4.21,R
,1560531,2458,0,1848,-0.391,0.021,0.971,6.11,4.93,5.54,R
,1560541,2430,0,1851,-0.393,0.031,0.959,6.11,4.24,5.84,R
,1560551,2370,0,1851,-0.405,0.044,0.954,4.94,1.98,6.13,R
,1560561,2267,0,1846,-0.409,0.042,0.966,5.85,-1.24,5.67,R
,1560571,2212,0,1849,-0.411,0.028,0.964,5.21,-4.18,5.89,R
,1560581,2011,0,1848,-0.399,0.028,0.955,5.04,-8.18,7.08,R
,1560591,1901,0,1846,-0.393,0.037,0.938,2.40,-12.73,7.03,R
,1560601,1671,0,1855,-0.372,0.039,0.953,0.48,-17.39,6.77,R
,1560611,1633,0,1849,-0.366,0.039,0.964,-1.34,-19.54,7.17,R
,1560621,1562,0,1852,-0.377,0.035,0.983,-7.58,-22.08,9.14,R
,1560631,1304,0,1850,-0.346,0.009,0.993,-5.23,-23.54,7.80,R
,1560641,1254,0,1847,-0.351,0.001,0.994,-7.49,-24.05,5.93,R
,1560651,1164,0,1845,-0.345,-0.034,0.996,-7.19,-28.37,2.62,R
,1560661,1088,0,1847,-0.346,-0.037,0.990,-5.31,-33.50,-0.37,R
,1560671,1011,0,1846,-0.334,-0.056,0.990,-1.13,-38.79,-3.79,R
,1560681,762,0,1847,-0.301,-0.073,1.005,1.70,-43.08,-7.06,R
,1560691,672,0,1854,-0.284,-0.046,1.008,7.10,-45.37,-8.48,R
,1560701,607,0,1853,-0.257,-0.064,1.018,12.83,-43.88,-7.85,R
,1560711,581,0,1853,-0.232,-0.051,1.013,20.63,-39.10,-7.52,R
,1560721,477,0,1851,-0.219,0.001,1.054,19.85,-29.16,-6.82,R
,1560731,194,0,1858,-0.218,-0.038,1.080,22.31,-21.95,-6.83,R
,1560741,0,0,1855,-0.212,-0.015,1.076,23.27,-18.05,-7.53,R
,1560751,0,0,1855,-0.220,-0.023,1.075,22.14,-12.44,-6.46,R
,1560761,0,0,1856,-0.235,-0.017,1.086,22.48,-10.60,-3.26,R
,1560771,0,0,1853,-0.231,0.000,1.087,24.49,-11.60,-2.88,R
,1560781,0,0,1850,-0.227,-0.017,1.088,21.29,-12.84,-3.11,R
,1560791,0,0,1855,-0.219,-0.010,1.083,19.32,-16.52,-5.72,R
,1560801,0,0,1850,-0.241,-0.002,1.070,15.36,-17.10,-5.78,R
,1560811,0,0,1853,-0.246,-0.011,1.108,16.46,-18.21,-4.13,R
,1560821,0,0,1854,-0.237,0.001,1.101,15.62,-16.64,-1.11,R
,1560831,0,0,1853,-0.248,-0.012,1.081,15.59,-15.47,0.36,R
,1560841,0,0,1854,-0.245,0.004,1.117,13.87,-17.18,1.55,R
,1560851,0,0,1856,-0.263,-0.007,1.110,14.10,-17.68,3.11,R
,1560861,0,0,1856,-0.269,0.031,1.088,17.03,-19.47,6.09,R
,1560871,0,0,1845,-0.236,-0.003,1.066,19.71,-19.44,5.37,R
,1560881,0,0,1851,-0.219,0.001,1.070,19.42,-18.82,3.12,R
,1560891,0,0,1849,-0.219,0.027,1.021,21.61,-17.80,1.75,R
,1560901,0,0,1846,-0.236,0.054,0.956,22.16,-12.18,3.60,R
,1560911,0,0,1850,-0.202,0.047,0.964,22.31,-8.58,-0.56,R
,1560921,0,0,1845,-0.161,0.021,1.102,30.32,-9.05,-0.92,R
,1560931,0,0,1847,-0.216,0.015,0.956,26.25,-4.90,-0.86,R
,1560941,0,0,1849,-0.205,0.024,0.947,32.22,-2.21,1.17,R
,1560951,0,0,1850,-0.186,0.012,0.967,34.52,-0.99,-0.10,R
,1560961,0,0,1850,-0.183,0.034,0.958,35.49,-2.21,-3.56,R
,1560971,0,0,1846,-0.185,0.044,0.952,34.28,-2.15,-5.90,R
,1560981,0,0,1845,-0.195,0.073,0.918,34.11,-1.56,-5.35,R
,1560991,0,0,1842,-0.168,0.052,1.000,29.09,-1.47,-8.80,R
,1561001,0,0,1841,-0.167,0.054,1.016,26.98,-5.51,-13.69,R
,1561011,0,0,1841,-0.196,0.070,0.998,28.86,-6.79,-13.99,R
,1561021,0,0,1840,-0.207,0.083,1.010,33.06,-5.65,-11.98,R
,1561031,0,0,1843,-0.165,0.082,0.983,35.73,-4.44,-13.76,R
,1561041,0,0,1841,-0.142,0.119,0.995,32.95,-4.78,-16.82,R
,1561051,0,0,1843,-0.171,0.146,0.999,31.32,-5.79,-15.62,R
,1561061,0,0,1840,-0.188,0.160,0.993,27.39,-7.71,-13.82,R
,1561071,0,0,1838,-0.168,0.181,1.008,23.38,-8.55,-9.95,R
,1561081,0,0,1843,-0.153,0.193,1.020,18.69,-9.18,-7.59,R
,1561091,0,0,1840,-0.143,0.207,1.031,14.45,-9.42,-4.71,R
,1561101,0,0,1840,-0.132,0.207,1.045,10.69,-9.24,-2.66,R
,1561111,0,0,1850,-0.135,0.218,1.051,9.23,-8.57,-1.29,R
,1561121,0,0,1847,-0.114,0.219,1.055,8.57,-7.85,-1.46,R
,1561131,0,0,1847,-0.113,0.213,1.042,10.45,-6.08,-2.40,R
,1561141,0,0,1840,-0.117,0.239,1.046,8.84,-6.96,-1.01,R
,1561151,0,0,1847,-0.114,0.243,1.031,7.64,-8.38,-1.58,R
,1561161,0,0,1849,-0.134,0.222,1.034,9.32,-8.58,-0.19,R
,1561171,0,0,1843,-0.141,0.289,1.022,1.88,-8.14,3.81,R
,1561181,16,0,1842,-0.141,0.296,1.010,-1.16,-7.62,6.30,R
,1561191,4,0,1845,-0.153,0.290,1.005,-5.84,-6.70,8.04,R
,1561201,0,0,1843,-0.156,0.291,0.991,-7.75,-7.68,9.38,R
,1561211,16,0,1845,-0.171,0.266,1.011,-7.63,-7.83,9.86,R
,1561221,2,0,1847,-0.185,0.258,1.006,-6.38,-7.89,10.47,R
,1561231,48,0,1850,-0.205,0.222,1.007,-2.50,-7.50,9.67,R
,1561241,48,0,1849,-0.211,0.213,1.002,-1.20,-5.13,8.80,R
,1561251,48,0,1856,-0.219,0.212,0.980,0.52,-2.52,7.58,R
,1561261,48,0,1852,-0.229,0.215,0.967,0.72,-0.75,8.18,R
,1561271,48,0,1851,-0.219,0.209,0.931,-4.19,-4.96,10.63,R
,1561281,53,0,1852,-0.215,0.293,0.929,-16.24,-10.84,14.60,R
,1561291,58,0,1853,-0.233,0.240,0.934,-31.43,-20.18,18.13,R
,1561301,58,0,1855,-0.165,0.159,0.923,-40.93,-29.42,18.15,R
,1561311,53,0,1852,-0.145,0.119,0.917,-47.98,-34.40,19.06,R
,1561321,49,0,1851,-0.134,0.103,0.945,-47.74,-31.60,20.02,R
,1561331,74,0,1854,-0.094,0.082,0.961,-48.88,-24.29,17.69,R
,1561341,44,0,1855,-0.099,0.055,0.982,-46.27,-16.35,13.31,R
,1561351,85,0,1856,-0.182,0.037,1.021,-39.45,-18.53,11.40,R
,1561361,71,0,1857,-0.169,0.005,0.986,-29.97,-19.01,11.23,R
,1561371,91,0,1854,-0.145,-0.004,0.964,-22.81,-15.24,10.73,R
,1561381,87,0,1856,-0.147,-0.012,0.960,-14.53,-11.79,7.93,R
,1561391,94,0,1861,-0.169,-0.014,0.963,-6.15,-11.21,4.24,R
,1561401,93,0,1860,-0.181,-0.010,0.932,1.93,-10.58,0.09,R
,1561411,101,0,1859,-0.190,-0.006,0.919,8.86,-8.31,-4.07,R
,1561421,91,0,1855,-0.207,-0.001,0.891,15.13,-5.28,-7.18,R
,1561431,92,0,1858,-0.224,0.002,0.877,20.54,-3.57,-9.81,R
,1561441,94,0,1863,-0.236,0.010,0.861,25.26,-1.04,-11.30,R
,1561451,109,0,1856,-0.252,0.006,0.834,30.03,0.84,-12.74,R
,1561461,107,0,1856,-0.254,0.009,0.822,34.61,3.97,-12.97,R
,1561471,112,0,1859,-0.257,0.017,0.799,39.81,9.37,-13.59,R
,1561481,112,0,1859,-0.255,0.043,0.812,44.36,14.20,-15.01,R
,1561491,112,0,1859,-0.256,0.080,0.797,46.45,19.59,-16.91,R
,1561501,113,0,1856,-0.255,0.114,0.793,45.16,24.24,-20.07,R
,1561511,119,0,1857,-0.245,0.139,0.795,42.10,27.68,-23.50,R
,1561521,118,0,1855,-0.238,0.165,0.806,36.78,31.28,-27.06,R
,1561531,113,0,1856,-0.244,0.193,0.808,32.05,34.87,-28.60,R
,1561541,126,0,1856,-0.248,0.217,0.824,27.70,38.32,-28.28,R
,1561551,113,0,1855,-0.246,0.230,0.855,24.25,41.71,-27.21,R
,1561561,117,0,1845,-0.249,0.229,0.868,22.36,45.76,-25.41,R
,1561571,137,0,1850,-0.247,0.225,0.908,22.08,48.89,-22.92,R
,1561581,118,0,1846,-0.245,0.221,0.930,23.62,50.76,-20.42,R
,1561591,141,0,1846,-0.249,0.237,0.938,25.01,52.47,-17.59,R
,1561601,135,0,1849,-0.263,0.255,0.953,25.67,53.04,-15.84,R
,1561611,111,0,1849,-0.260,0.273,0.971,23.35,52.61,-14.59,R
,1561621,153,0,1845,-0.272,0.287,0.981,19.35,50.90,-13.55,R
,1561631,164,0,1850,-0.283,0.298,0.986,13.12,48.47,-12.16,R
,1561641,159,0,1842,-0.297,0.313,1.015,7.49,45.92,-11.07,R
,1561651,153,0,1850,-0.302,0.321,1.028,2.68,43.76,-9.62,R
,1561661,155,0,1845,-0.313,0.323,1.044,-3.90,40.85,-8.72,R
,1561671,126,0,1841,-0.334,0.324,1.063,-10.59,36.76,-6.60,R
,1561681,160,0,1847,-0.358,0.319,1.094,-15.86,31.66,-3.70,R
,1561691,156,0,1845,-0.373,0.305,1.105,-20.58,24.82,-0.48,R
,1561701,154,0,1846,-0.367,0.291,1.126,-23.29,17.77,2.71,R
,1561711,160,0,1854,-0.364,0.263,1.131,-22.82,11.68,5.26,R
,1561721,157,0,1851,-0.338,0.234,1.132,-20.85,5.86,6.18,R
,1561731,158,0,1852,-0.327,0.212,1.116,-16.38,1.79,6.99,R
,1561741,157,0,1854,-0.316,0.194,1.092,-9.63,0.43,7.63,R
,1561751,159,0,1850,-0.309,0.189,1.091,-2.50,0.90,8.82,R
,1561761,162,0,1851,-0.300,0.188,1.057,4.75,4.37,9.80,R
,1561771,157,0,1849,-0.294,0.193,1.034,10.77,8.87,10.28,R
,1561781,153,0,1849,-0.297,0.208,1.010,13.38,12.49,10.93,R
,1561791,159,0,1856,-0.320,0.218,0.988,14.68,14.08,12.42,R
,1561801,166,0,1853,-0.327,0.228,0.970,14.74,13.18,14.10,R
,1561811,162,0,1851,-0.320,0.238,0.940,11.88,11.47,15.23,R
,1561821,171,0,1852,-0.318,0.233,0.923,7.94,8.67,15.54,R
,1561831,175,0,1851,-0.308,0.232,0.918,3.82,6.32,15.66,R
,1561841,160,0,1853,-0.301,0.227,0.896,0.65,4.49,16.22,R
,1561851,162,0,1847,-0.284,0.216,0.895,-1.10,3.72,16.42,R
,1561861,172,0,1848,-0.265,0.205,0.879,-0.97,3.30,16.70,R
,1561871,144,0,1848,-0.250,0.195,0.875,-2.36,4.43,16.27,R
,1561881,165,0,1843,-0.245,0.183,0.867,-3.19,5.59,14.96,R
,1561891,161,0,1847,-0.228,0.182,0.858,-2.76,7.33,12.67,R
,1561901,163,0,1851,-0.219,0.180,0.849,-3.42,10.23,10.74,R
,1561911,163,0,1853,-0.226,0.181,0.848,-4.70,15.57,9.37,R
,1561921,160,0,1851,-0.243,0.187,0.855,-5.22,20.85,9.37,R
,1561931,117,0,1853,-0.261,0.194,0.855,-7.61,24.67,9.64,R
,1561941,165,0,1858,-0.274,0.206,0.876,-10.93,27.60,10.02,R
,1561951,158,0,1855,-0.285,0.204,0.874,-16.15,28.09,9.66,R
,1561961,163,0,1850,-0.302,0.204,0.892,-21.06,27.39,8.77,R
,1561971,165,0,1853,-0.320,0.202,0.916,-25.55,25.65,8.60,R
,1561981,160,0,1853,-0.336,0.196,0.931,-28.16,23.24,8.57,R
,1561991,161,0,1856,-0.340,0.194,0.937,-30.62,20.73,8.38,R
,1562001,155,0,1856,-0.346,0.188,0.965,-32.44,18.58,7.96,R
,1562011,159,0,1854,-0.354,0.188,0.984,-32.38,16.49,7.54,R
,1562021,157,0,1850,-0.355,0.179,0.995,-31.45,14.81,6.74,R
,1562031,155,0,1849,-0.364,0.179,0.994,-30.42,14.23,6.65,R
,1562041,153,0,1847,-0.364,0.176,1.000,-27.93,13.59,6.97,R
,1562051,159,0,1849,-0.374,0.176,0.999,-25.14,14.03,7.29,R
,1562061,162,0,1847,-0.382,0.172,1.004,-21.93,14.66,7.67,R
,1562071,161,0,1847,-0.390,0.169,0.998,-19.45,14.37,7.78,R
,1562081,162,0,1845,-0.396,0.174,1.000,-17.72,13.80,8.60,R
,1562091,164,0,1846,-0.395,0.167,0.996,-16.06,13.16,9.15,R
,1562101,169,0,1847,-0.397,0.161,0.987,-15.84,12.76,9.95,R
,1562111,171,0,1851,-0.405,0.167,0.989,-16.04,12.82,10.27,R
,1562121,167,0,1847,-0.403,0.151,0.975,-16.94,12.26,10.93,R
,1562131,173,0,1855,-0.406,0.150,0.972,-17.66,12.06,11.43,R
,1562141,176,0,1852,-0.401,0.145,0.967,-18.33,11.27,11.61,R
,1562151,169,0,1851,-0.401,0.139,0.957,-19.25,10.44,12.33,R
,1562161,176,0,1855,-0.397,0.137,0.952,-19.35,8.38,12.65,R
,1562171,171,0,1857,-0.396,0.131,0.946,-17.93,6.50,13.02,R
,1562181,174,0,1853,-0.393,0.140,0.939,-17.97,5.86,13.55,R
,1562191,170,0,1856,-0.387,0.140,0.938,-17.05,5.56,13.78,R
,1562201,176,0,1847,-0.377,0.136,0.933,-16.10,6.44,13.84,R
,1562211,176,0,1856,-0.376,0.125,0.923,-14.01,8.61,12.42,R
,1562221,173,0,1855,-0.367,0.120,0.906,-12.55,10.89,11.37,R
,1562231,174,0,1855,-0.370,0.113,0.904,-13.28,13.98,10.77,R
,1562241,167,0,1853,-0.388,0.110,0.916,-13.69,15.51,10.83,R
,1562251,171,0,1856,-0.401,0.118,0.907,-14.64,16.85,11.54,R
,1562261,166,0,1855,-0.397,0.115,0.917,-16.85,17.63,11.93,R
,1562271,171,0,1854,-0.400,0.115,0.927,-18.97,17.60,11.20,R
,1562281,174,0,1854,-0.407,0.116,0.926,-22.45,16.73,10.89,R
,1562291,171,0,1855,-0.419,0.120,0.940,-24.79,15.98,11.06,R
,1562301,171,0,1856,-0.428,0.116,0.941,-25.92,14.78,12.36,R
,1562311,157,0,1858,-0.431,0.110,0.944,-26.48,14.47,14.25,R
,1562321,161,0,1853,-0.434,0.109,0.950,-27.28,13.71,16.62,R
,1562331,155,0,1855,-0.427,0.105,0.966,-26.26,12.73,18.09,R
,1562341,150,0,1855,-0.427,0.093,0.986,-24.16,11.25,18.16,R
,1562351,165,0,1850,-0.411,0.091,0.983,-21.28,11.50,19.28,R
,1562361,169,0,1847,-0.409,0.090,0.980,-17.31,10.99,17.90,R
,1562371,162,0,1850,-0.410,0.078,0.985,-14.97,9.98,15.66,R
,1562381,167,0,1854,-0.399,0.085,0.977,-12.21,8.81,13.26,R
,1562391,149,0,1853,-0.389,0.086,0.960,-9.81,7.76,10.77,R
,1562401,151,0,1852,-0.391,0.097,0.948,-10.48,7.92,9.51,R
,1562411,159,0,1854,-0.407,0.095,0.948,-11.00,8.50,9.73,R
,1562421,158,0,1852,-0.412,0.103,0.946,-11.90,8.44,11.40,R
,1562431,155,0,1846,-0.410,0.098,0.947,-12.67,8.46,12.25,R
,1562441,159,0,1846,-0.411,0.095,0.945,-15.20,7.33,13.38,R
,1562451,153,0,1849,-0.411,0.095,0.951,-15.98,6.11,13.83,R
,1562461,157,0,1848,-0.416,0.086,0.966,-17.14,5.10,14.31,R
,1562471,151,0,1845,-0.412,0.080,0.950,-17.71,4.85,15.17,R
,1562481,151,0,1846,-0.412,0.078,0.958,-17.68,4.95,16.16,R
,1562491,169,0,1847,-0.407,0.068,0.956,-15.92,5.71,16.24,R
,1562501,165,0,1845,-0.406,0.066,0.948,-14.00,5.88,16.16,R
,1562511,159,0,1853,-0.416,0.070,0.939,-13.84,5.01,15.95,R
,1562521,194,0,1847,-0.410,0.060,0.953,-12.50,3.80,15.03,R
,1562531,189,0,1847,-0.406,0.055,0.939,-12.84,2.70,13.61,R
,1562541,182,0,1849,-0.413,0.053,0.944,-10.71,0.72,12.09,R
,1562551,187,0,1845,-0.408,0.051,0.943,-9.14,-0.43,10.93,R
,1562561,198,0,1845,-0.414,0.051,0.934,-8.27,-1.59,9.96,R
,1562571,182,0,1845,-0.416,0.052,0.919,-9.19,-2.12,9.14,R
,1562581,201,0,1846,-0.427,0.054,0.930,-11.48,-2.15,9.37,R
,1562591,200,0,1851,-0.421,0.044,0.938,-13.26,-2.37,9.54,R
,1562601,191,0,1849,-0.417,0.042,0.949,-15.86,-2.63,10.21,R
,1562611,198,0,1850,-0.427,0.041,0.955,-16.42,-3.31,10.65,R
,1562621,202,0,1849,-0.437,0.038,0.971,-15.55,-4.79,11.11,R
,1562631,195,0,1846,-0.421,0.018,0.994,-17.10,-9.07,11.67,R
,1562641,192,0,1851,-0.396,-0.007,1.031,-9.22,-14.52,6.47,R
,1562651,169,0,1849,-0.415,0.045,0.970,-5.77,-20.99,0.13,R
,1562661,179,0,1849,-0.407,-0.017,1.013,4.46,-26.14,-4.20,R
,1562671,152,0,1843,-0.408,0.005,0.989,4.25,-26.00,-4.68,R
,1562681,151,0,1847,-0.413,0.021,0.991,2.60,-24.47,-3.58,R
,1562691,148,0,1853,-0.395,0.041,0.996,5.04,-22.17,-1.40,R
,1562701,153,0,1851,-0.373,0.063,0.970,2.75,-18.34,-0.37,R
,1562711,156,0,1847,-0.372,0.071,0.960,-0.91,-13.68,-0.04,R
,1562721,157,0,1846,-0.374,0.078,0.966,-2.84,-11.24,0.59,R
,1562731,155,0,1855,-0.378,0.079,0.952,-2.18,-9.65,0.22,R
,1562741,151,0,1849,-0.383,0.085,0.917,-3.69,-8.12,0.31,R
,1562751,157,0,1851,-0.377,0.089,0.916,-6.68,-8.96,-0.69,R
,1562761,148,0,1850,-0.385,0.086,0.924,-9.72,-11.28,-1.87,R
,1562771,147,0,1843,-0.387,0.078,0.928,-11.81,-14.37,-3.04,R
,1562781,150,0,1847,-0.385,0.080,0.927,-11.51,-15.97,-1.85,R
,1562791,144,0,1849,-0.380,0.078,0.925,-10.04,-16.57,-1.37,R
,1562801,163,0,1842,-0.370,0.073,0.927,-10.13,-16.29,-2.05,R
,1562811,151,0,1846,-0.369,0.061,0.931,-9.43,-15.76,-1.95,R
,1562821,150,0,1846,-0.371,0.070,0.923,-8.58,-15.24,-1.76,R
,1562831,149,0,1843,-0.375,0.082,0.935,-8.55,-15.01,-0.48,R
,1562841,148,0,1842,-0.373,0.084,0.936,-10.10,-15.83,-0.20,R
,1562851,144,0,1847,-0.369,0.082,0.946,-13.42,-16.03,0.97,R
,1562861,115,0,1846,-0.370,0.080,0.949,-16.32,-17.31,1.58,R
,1562871,112,0,1851,-0.360,0.082,0.935,-19.14,-19.27,2.05,R
,1562881,108,0,1848,-0.372,0.084,0.889,-22.59,-20.06,1.67,R
,1562891,62,0,1846,-0.349,0.068,0.931,-29.10,-23.01,2.21,R
,1562901,78,0,1843,-0.327,0.031,0.944,-32.59,-28.99,-1.35,R
,1562911,69,0,1845,-0.299,0.002,0.969,-33.13,-34.87,-5.99,R
,1562921,66,0,1847,-0.308,-0.018,0.983,-31.14,-35.79,-9.78,R
,1562931,80,0,1846,-0.299,-0.031,0.987,-24.73,-32.24,-10.75,R
,1562941,69,0,1840,-0.293,-0.037,0.973,-17.52,-27.02,-10.74,R
,1562951,65,0,1855,-0.288,-0.030,0.979,-12.76,-18.72,-8.59,R
,1562961,67,0,1844,-0.290,-0.023,0.985,-5.51,-9.97,-6.13,R
,1562971,61,0,1840,-0.279,-0.025,0.981,-0.12,-1.59,-4.63,R
,1562981,49,0,1849,-0.293,-0.014,0.987,5.00,4.32,-3.40,R
,1562991,53,0,1846,-0.311,0.001,0.977,10.00,8.87,-3.01,R
,1563001,18,0,1840,-0.323,0.005,0.968,11.84,9.05,-4.46,R
,1563011,4,0,1845,-0.336,0.023,0.953,10.25,6.18,-6.16,R
,1563021,0,0,1843,-0.355,0.033,0.941,6.31,1.53,-7.91,R
,1563031,0,0,1845,-0.339,0.025,0.969,0.86,-1.60,-7.58,R
,1563041,0,0,1841,-0.343,0.033,0.967,-4.56,-5.45,-8.95,R
,1563051,0,0,1845,-0.336,0.023,0.971,-4.94,-6.78,-8.85,R
,1563061,0,0,1843,-0.335,0.017,0.989,-5.66,-4.93,-6.86,R
,1563071,222,0,1850,-0.324,-0.025,1.023,-0.56,-1.40,-6.30,R
,1563081,272,0,1848,-0.321,-0.032,1.047,11.74,4.31,-7.07,R
,1563091,304,0,1851,-0.321,-0.001,1.029,15.47,9.19,-7.53,R
,1563101,316,0,1851,-0.329,-0.001,1.012,17.74,10.99,-8.51,R
,1563111,320,0,1847,-0.343,0.021,1.008,16.86,9.37,-8.11,R
,1563121,367,0,1843,-0.336,0.019,0.998,14.87,6.46,-7.52,R
,1563131,411,0,1846,-0.312,0.008,1.005,11.19,2.90,-8.45,R
,1563141,418,0,1851,-0.287,0.000,0.995,12.74,1.48,-10.34,R
,1563151,430,0,1850,-0.286,-0.014,0.976,15.59,3.40,-11.33,R
,1563161,432,0,1846,-0.276,0.001,0.941,19.19,9.74,-10.75,R
,1563171,452,0,1852,-0.257,-0.018,0.935,25.30,17.82,-11.90,R
,1563181,464,0,1847,-0.256,-0.023,0.917,27.26,25.97,-13.81,R
,1563191,468,0,1842,-0.275,0.015,0.917,27.33,33.85,-14.97,R
,1563201,449,0,1845,-0.292,-0.003,0.922,26.54,38.34,-16.78,R
,1563211,486,0,1845,-0.306,0.006,0.912,23.45,40.41,-21.64,R
,1563221,464,0,1842,-0.330,0.009,0.924,19.13,41.71,-22.16,R
,1563231,414,0,1845,-0.355,0.037,0.934,15.94,39.13,-21.47,R
,1563241,402,0,1844,-0.375,0.057,0.958,12.49,35.13,-19.96,R
,1563251,395,0,1847,-0.404,0.058,0.944,-0.18,30.53,-14.34,R
,1563261,400,0,1846,-0.414,0.057,0.978,-7.43,20.21,-11.64,R
,1563271,397,0,1843,-0.429,0.048,0.985,-12.19,9.19,-11.95,R
,1563281,400,0,1841,-0.437,0.079,0.987,-15.22,0.85,-12.08,R
,1563291,402,0,1847,-0.415,0.055,0.985,-19.78,-5.34,-11.62,R
,1563301,447,0,1844,-0.414,0.035,0.977,-20.09,-6.79,-10.60,R
,1563311,464,0,1846,-0.425,0.059,0.969,-26.45,-5.79,-7.09,R
,1563321,479,0,1843,-0.421,0.062,0.963,-19.80,-2.66,-3.79,R
,1563331,471,0,1845,-0.416,0.083,0.957,-16.76,2.24,0.33,R
,1563341,444,0,1844,-0.433,0.075,0.937,-20.82,6.00,5.67,R
,1563351,381,0,1851,-0.446,0.087,0.947,-26.29,3.24,12.28,R
,1563361,549,0,1850,-0.471,0.071,0.812,-29.34,-12.43,16.93,R
,1563371,554,0,1849,-0.423,0.073,0.949,-28.21,-7.92,13.15,R
,1563381,578,0,1846,-0.401,0.060,0.956,-30.26,-15.57,9.43,R
,1563391,566,0,1847,-0.393,0.023,0.974,-30.21,-22.38,3.86,R
,1563401,587,0,1850,-0.394,0.021,0.973,-25.48,-25.60,2.12,R
,1563411,601,0,1846,-0.368,0.008,0.976,-23.20,-22.52,2.63,R
,1563421,609,0,1846,-0.351,0.014,0.960,-22.10,-15.74,3.98,R
,1563431,629,0,1849,-0.350,0.000,1.005,-23.16,-10.84,4.16,R
,1563441,630,0,1850,-0.355,-0.008,1.015,-20.07,-10.14,5.03,R
,1563451,640,0,1851,-0.350,-0.037,1.006,-9.00,-7.28,6.50,R
,1563461,715,0,1847,-0.345,-0.029,0.984,-9.14,-1.21,7.38,R
,1563471,743,0,1848,-0.333,-0.013,0.996,-5.75,4.03,5.35,R
,1563481,810,0,1847,-0.378,0.021,0.991,-12.59,5.60,7.99,R
,1563491,860,0,1841,-0.403,0.006,0.978,-13.57,0.82,8.10,R
,1563501,884,0,1847,-0.401,-0.021,0.987,-14.41,-7.45,6.97,R
,1563511,818,0,1853,-0.397,-0.029,0.958,-12.56,-14.66,5.67,R
,1563521,682,0,1850,-0.381,-0.038,0.955,-14.00,-20.95,4.09,R
,1563531,722,0,1847,-0.383,-0.029,0.951,-14.36,-25.39,3.57,R
,1563541,807,0,1846,-0.373,-0.023,0.929,-13.37,-26.96,4.21,R
,1563551,813,80,1844,-0.359,-0.015,0.969,-11.90,-21.82,7.57,R
,1563561,771,89,1845,-0.305,-0.061,1.002,-10.15,-13.62,8.86,R
,1563571,707,173,1852,-0.282,-0.075,1.013,-6.16,-3.65,5.76,R
,1563581,711,272,1849,-0.331,-0.050,1.007,-5.83,4.40,7.51,R
,1563591,751,287,1849,-0.331,-0.077,0.974,-6.56,5.94,7.93,R
,1563601,765,271,1851,-0.316,-0.073,0.992,-1.43,3.42,4.62,R
,1563611,777,283,1851,-0.352,-0.061,0.958,-7.58,-1.30,3.26,R
,1563621,785,283,1853,-0.352,-0.051,0.957,-12.56,-10.12,1.49,R
,1563631,796,277,1854,-0.350,-0.056,0.963,-15.58,-19.82,-1.38,R
,1563641,799,272,1851,-0.356,-0.049,0.972,-16.76,-29.74,-4.62,R
,1563651,798,273,1856,-0.357,-0.052,0.970,-20.33,-37.74,-4.77,R
,1563661,787,259,1847,-0.274,-0.078,0.967,-23.71,-41.73,-7.75,R
,1563671,799,262,1853,-0.273,-0.090,0.983,-33.95,-38.44,-11.09,R
,1563681,826,261,1847,-0.309,-0.093,1.002,-25.52,-33.44,-7.40,R
,1563691,814,266,1849,-0.269,-0.110,1.018,-20.44,-24.46,-3.50,R
,1563701,846,269,1846,-0.264,-0.104,0.991,-15.77,-14.60,-0.98,R
,1563711,833,261,1847,-0.231,-0.136,0.994,-13.22,-5.19,-0.77,R
,1563721,847,265,1843,-0.232,-0.168,1.000,-7.08,3.30,-5.23,R
,1563731,837,238,1845,-0.293,-0.155,0.986,0.19,7.33,-4.62,R
,1563741,844,235,1849,-0.316,-0.104,0.964,7.12,10.66,-0.22,R
,1563751,931,237,1849,-0.287,-0.080,0.955,6.81,9.30,-0.62,R
,1563761,976,226,1854,-0.292,-0.063,0.958,0.75,6.17,-2.94,R
,1563771,1014,231,1855,-0.321,-0.048,0.988,-1.45,2.67,-3.09,R
,1563781,1039,303,1853,-0.315,-0.057,0.995,-4.22,-1.28,-2.97,R
,1563791,1059,310,1854,-0.261,-0.090,1.010,0.52,-2.87,-8.60,R
,1563801,1061,338,1856,-0.279,-0.090,1.016,3.88,-0.46,-9.78,R
,1563811,1113,336,1853,-0.286,-0.110,1.031,7.44,2.24,-8.17,R
,1563821,1226,335,1852,-0.216,-0.152,1.007,18.48,8.87,-14.07,R
,1563831,1207,318,1846,-0.260,-0.116,0.988,16.77,16.76,-11.59,R
,1563841,1289,389,1846,-0.284,-0.107,0.972,20.39,20.61,-9.09,R
,1563851,1307,407,1841,-0.298,-0.083,0.974,22.60,22.09,-7.50,R
,1563861,1309,432,1842,-0.313,-0.060,0.975,17.93,20.11,-5.29,R
,1563871,1400,430,1843,-0.337,-0.059,0.955,16.65,16.49,-5.66,R
,1563881,1358,328,1849,-0.345,-0.023,0.943,8.87,10.60,-5.03,R
,1563891,1360,359,1843,-0.347,-0.031,0.961,6.00,5.37,-5.72,R
,1563901,1392,319,1842,-0.357,-0.022,0.937,4.22,1.88,-6.59,R
,1563911,1410,295,1843,-0.348,-0.036,0.964,1.35,0.55,-6.07,R
,1563921,1470,306,1846,-0.343,-0.045,0.982,-0.29,-0.03,-6.40,R
,1563931,1568,330,1849,-0.330,-0.069,0.997,0.48,-0.08,-6.75,R
,1563941,1621,402,1850,-0.300,-0.096,0.998,5.49,1.74,-8.57,R
,1563951,1647,391,1847,-0.319,-0.069,0.968,9.39,6.81,-5.78,R
,1563961,1681,483,1849,-0.311,-0.080,0.994,13.13,9.69,-3.38,R
,1563971,1760,499,1845,-0.307,-0.073,0.954,14.00,10.92,-3.12,R
,1563981,1799,483,1849,-0.355,-0.052,0.958,13.19,10.66,0.51,R
,1563991,1838,475,1845,-0.324,-0.042,0.971,11.73,7.66,1.00,R
,1564001,1889,462,1848,-0.356,-0.001,0.937,5.26,4.72,0.44,R
,1564011,1897,461,1846,-0.361,0.004,0.976,3.42,-0.02,-0.75,R
,1564021,1907,451,1847,-0.375,0.017,0.965,-0.58,-1.99,-0.72,R
,1564031,1904,427,1847,-0.342,-0.009,0.967,-0.73,-4.99,-3.43,R
,1564041,1904,441,1847,-0.353,-0.021,0.976,-4.55,-4.86,-3.21,R
,1564051,1907,390,1843,-0.330,-0.040,0.979,-6.09,-4.28,-2.54,R
,1564061,1901,431,1845,-0.306,-0.065,0.973,-3.03,-1.91,-3.85,R
,1564071,1893,430,1845,-0.310,-0.071,0.980,-3.75,1.28,-2.45,R
,1564081,1900,432,1850,-0.314,-0.066,0.976,-2.07,2.79,-0.11,R
,1564091,1914,418,1852,-0.313,-0.058,0.975,-0.50,3.72,1.09,R
,1564101,1908,422,1850,-0.328,-0.042,0.976,-0.71,5.85,1.69,R
,1564111,1920,431,1855,-0.315,-0.048,0.996,2.02,5.02,-0.97,R
,1564121,1917,434,1853,-0.357,-0.035,0.993,0.48,4.21,-0.51,R
,1564131,1936,410,1850,-0.343,-0.037,0.982,1.09,2.27,-0.05,R
,1564141,1939,409,1851,-0.321,-0.042,0.965,-0.50,1.13,-1.56,R
,1564151,1936,444,1846,-0.334,-0.043,0.957,-2.74,1.62,-1.49,R
,1564161,1926,423,1842,-0.324,-0.071,0.961,-1.51,1.80,-1.12,R
,1564171,1923,419,1850,-0.334,-0.055,0.951,-1.66,4.05,0.34,R
,1564181,1923,404,1844,-0.345,-0.048,0.958,-0.90,3.82,1.08,R
,1564191,1923,403,1845,-0.339,-0.033,0.936,-2.79,3.47,0.89,R
,1564201,1923,426,1850,-0.331,-0.048,0.963,-6.24,1.42,-1.21,R
,1564211,1921,386,1850,-0.349,-0.055,0.977,-3.19,-0.58,-0.83,R
,1564221,1884,384,1845,-0.326,-0.037,0.949,-6.96,-1.66,0.50,R
,1564231,1908,384,1842,-0.317,-0.048,0.988,-5.17,-1.24,0.10,R
,1564241,1902,384,1845,-0.311,-0.065,1.010,-3.23,-0.05,-1.75,R
,1564251,1895,336,1846,-0.334,-0.070,1.018,-0.65,2.72,-0.57,R
,1564261,1911,377,1844,-0.322,-0.072,1.018,1.55,4.93,0.22,R
,1564271,1920,397,1846,-0.328,-0.062,1.019,3.32,6.76,0.42,R
,1564281,1922,406,1851,-0.325,-0.052,0.982,5.19,6.09,-0.33,R
,1564291,1937,388,1850,-0.335,-0.052,0.966,6.71,5.60,-1.32,R
,1564301,1951,386,1843,-0.364,-0.025,0.940,4.25,6.23,-0.13,R
,1564311,1943,368,1840,-0.350,-0.021,0.940,5.65,6.32,-0.24,R
,1564321,1961,383,1849,-0.363,-0.028,0.954,2.20,5.45,-0.63,R
,1564331,1943,394,1847,-0.347,-0.037,0.943,2.65,2.05,-3.20,R
,1564341,1953,366,1846,-0.375,-0.028,0.959,-3.48,0.47,-1.15,R
,1564351,1924,367,1845,-0.343,-0.040,0.968,-5.63,-3.62,-1.88,R
,1564361,1936,398,1841,-0.347,-0.047,0.973,-6.68,-4.76,-1.07,R
,1564371,1938,386,1846,-0.338,-0.073,0.981,-6.41,-2.52,0.42,R
,1564381,1971,386,1845,-0.350,-0.056,0.979,-7.74,-0.24,2.10,R
,1564391,1969,397,1846,-0.325,-0.077,0.991,-2.30,-1.24,0.25,R
,1564401,1969,387,1845,-0.335,-0.074,0.962,-0.04,-2.21,-0.33,R
,1564411,1966,397,1843,-0.326,-0.070,0.960,4.34,-3.47,-0.82,R
,1564421,1936,409,1840,-0.313,-0.080,0.968,6.90,1.02,0.25,R
,1564431,2011,407,1843,-0.309,-0.066,0.993,2.07,8.12,1.96,R
,1564441,2027,422,1841,-0.343,-0.066,1.010,1.87,9.39,2.82,R
,1564451,2046,400,1840,-0.372,-0.043,0.975,2.55,6.75,3.20,R
,1564461,2064,402,1839,-0.364,-0.023,0.949,0.77,2.34,2.10,R
,1564471,2062,407,1840,-0.361,-0.011,0.923,-4.09,-2.63,-0.77,R
,1564481,2055,407,1844,-0.367,-0.032,0.946,-4.29,-5.31,-1.49,R
,1564491,2043,430,1843,-0.363,-0.035,0.935,-6.35,-6.15,-2.20,R
,1564501,2067,421,1847,-0.342,-0.058,0.943,-2.45,-5.69,-3.33,R
,1564511,2059,418,1843,-0.343,-0.054,0.964,-0.88,-3.71,-1.62,R
,1564521,2067,421,1845,-0.309,-0.070,1.010,2.49,-0.00,-0.62,R
,1564531,2089,407,1842,-0.316,-0.066,1.007,2.81,3.66,-0.37,R
,1564541,2093,400,1840,-0.331,-0.078,0.997,5.45,4.93,0.41,R
,1564551,2101,418,1843,-0.341,-0.047,0.996,4.48,4.96,1.80,R
,1564561,2114,402,1843,-0.333,-0.042,0.973,2.81,2.60,0.42,R
,1564571,2131,439,1840,-0.349,-0.046,0.944,-0.73,1.30,-0.56,R
,1564581,2139,427,1846,-0.360,-0.039,0.947,-1.92,-0.17,-0.43,R
,1564591,2140,418,1851,-0.360,-0.030,0.960,-0.44,-0.58,-0.39,R
,1564601,2151,432,1845,-0.354,-0.035,0.955,-1.00,-0.75,-1.40,R
,1564611,2158,431,1851,-0.363,-0.052,0.958,0.29,-1.62,-1.87,R
,1564621,2153,430,1849,-0.348,-0.046,0.961,0.89,-2.50,-1.90,R
,1564631,2138,422,1845,-0.338,-0.054,0.958,0.20,-1.80,-1.99,R
,1564641,2155,422,1843,-0.329,-0.061,0.956,0.66,-1.56,-1.78,R
,1564651,2145,430,1847,-0.333,-0.058,0.965,-0.35,-0.44,-1.30,R
,1564661,2144,432,1850,-0.345,-0.056,0.969,0.22,-0.34,-0.83,R
,1564671,2149,427,1855,-0.353,-0.053,0.984,-0.12,-1.02,0.39,R
,1564681,2160,423,1854,-0.335,-0.056,0.989,-0.10,-1.33,-0.14,R
,1564691,2162,429,1855,-0.338,-0.048,0.994,-0.50,-0.28,-0.04,R
,1564701,2167,433,1850,-0.320,-0.052,0.993,-0.29,1.94,-0.27,R
,1564711,2173,429,1846,-0.344,-0.054,0.996,0.98,3.48,0.62,R
,1564721,2170,430,1852,-0.356,-0.041,0.966,1.71,3.88,1.55,R
,1564731,2164,432,1850,-0.351,-0.036,0.946,0.36,0.89,-0.07,R
,1564741,2164,445,1850,-0.365,-0.043,0.938,-1.98,-2.44,-1.00,R
,1564751,2162,436,1853,-0.347,-0.042,0.949,-4.26,-5.18,-1.40,R
,1564761,2168,441,1857,-0.333,-0.057,0.975,-3.40,-6.00,-2.49,R
,1564771,2171,461,1845,-0.335,-0.052,0.991,-2.51,-3.86,-1.12,R
,1564781,2165,433,1843,-0.321,-0.042,0.990,-0.93,-1.05,0.48,R
,1564791,2167,437,1847,-0.317,-0.054,0.995,-0.07,2.32,1.66,R
,1564801,2166,391,1851,-0.326,-0.058,0.989,0.75,4.00,1.72,R
,1564811,2167,413,1844,-0.332,-0.069,0.986,2.78,4.61,1.34,R
,1564821,2165,423,1849,-0.348,-0.052,0.958,1.79,3.83,2.30,R
,1564831,2169,413,1845,-0.350,-0.039,0.950,0.51,1.02,1.11,R
,1564841,2161,402,1846,-0.365,-0.033,0.929,-1.77,-1.07,-0.01,R
,1564851,2151,415,1847,-0.359,-0.044,0.944,-0.81,-2.31,-0.97,R
,1564861,2159,404,1852,-0.363,-0.040,0.958,-1.57,-2.53,-0.72,R
,1564871,2147,406,1850,-0.361,-0.039,0.961,-2.16,-3.79,-0.30,R
,1564881,2119,406,1849,-0.350,-0.051,0.971,-1.45,-4.50,-0.88,R
,1564891,2103,400,1847,-0.340,-0.065,0.981,-0.67,-5.11,-1.59,R
,1564901,2112,400,1843,-0.339,-0.064,0.979,-1.25,-2.73,-0.86,R
,1564911,2106,395,1846,-0.333,-0.061,0.979,-0.19,-0.63,-0.43,R
,1564921,2106,391,1845,-0.339,-0.057,0.986,1.23,0.29,0.12,R
,1564931,2097,394,1849,-0.330,-0.058,0.968,2.28,1.11,0.18,R
,1564941,2112,395,1850,-0.327,-0.054,0.974,3.15,2.15,0.02,R
,1564951,2084,397,1852,-0.321,-0.055,0.975,4.90,3.88,-0.01,R
,1564961,2079,394,1847,-0.335,-0.046,0.971,3.58,4.72,0.24,R
,1564971,2080,398,1851,-0.354,-0.033,0.956,2.08,1.97,0.48,R
,1564981,2063,397,1854,-0.344,-0.030,0.943,2.31,-2.15,-0.92,R
,1564991,2063,374,1855,-0.337,-0.032,0.933,0.55,-4.96,-2.95,R
,1565001,2047,363,1853,-0.342,-0.038,0.961,2.07,-5.39,-2.97,R
,1565011,2018,346,1861,-0.335,-0.030,0.971,-0.45,-1.76,-0.83,R
,1565021,2014,302,1850,-0.327,-0.046,0.997,-0.19,0.67,-0.60,R
,1565031,2007,351,1851,-0.339,-0.052,0.988,-0.26,1.05,-0.39,R
,1565041,2007,347,1847,-0.336,-0.055,0.986,1.21,0.35,-0.65,R
,1565051,1995,337,1849,-0.333,-0.051,0.972,2.32,-0.15,-0.97,R
,1565061,1938,336,1841,-0.325,-0.062,0.963,4.42,-0.87,-1.99,R
,1565071,1899,242,1847,-0.332,-0.055,0.980,7.90,-1.11,-2.89,R
,1565081,1899,235,1846,-0.333,-0.051,0.958,9.70,5.48,-0.07,R
,1565091,1904,62,1847,-0.318,-0.039,0.969,7.67,10.95,0.57,R
,1565101,1902,66,1850,-0.357,-0.033,1.002,4.86,11.27,1.78,R
,1565111,1899,61,1853,-0.369,-0.038,0.978,5.07,8.00,1.49,R
,1565121,1902,52,1850,-0.362,-0.039,0.945,2.81,3.71,-0.75,R
,1565131,1893,42,1852,-0.375,-0.027,0.940,-0.99,-0.17,-1.56,R
,1565141,1889,48,1847,-0.368,-0.019,0.952,-2.87,-0.69,-0.86,R
,1565151,1879,23,1856,-0.350,-0.036,0.960,-3.80,-1.24,-1.58,R
,1565161,1874,11,1847,-0.363,-0.047,0.964,-2.59,-1.07,-1.58,R
,1565171,1861,64,1846,-0.343,-0.052,0.957,0.77,-1.42,-1.15,R
,1565181,1839,64,1846,-0.330,-0.056,0.953,1.85,-2.50,-1.73,R
,1565191,1840,71,1850,-0.340,-0.042,0.980,2.78,0.09,-0.51,R
,1565201,1824,73,1840,-0.313,-0.039,0.991,1.87,2.84,-0.83,R
,1565211,1860,67,1846,-0.336,-0.038,0.993,0.34,5.65,-0.16,R
,1565221,1863,64,1846,-0.344,-0.038,0.990,1.59,5.69,-0.02,R
,1565231,1865,64,1847,-0.345,-0.047,0.975,2.00,4.43,0.07,R
,1565241,1839,68,1852,-0.344,-0.052,0.957,1.76,2.93,-1.17,R
,1565251,1826,65,1847,-0.353,-0.045,0.954,-1.17,0.43,-0.77,R
,1565261,1822,64,1845,-0.375,-0.020,0.954,-1.57,-0.12,0.21,R
,1565271,1834,79,1847,-0.341,-0.025,0.970,-1.19,0.99,-0.14,R
,1565281,1839,80,1844,-0.353,-0.022,0.996,-1.98,2.11,-1.50,R
,1565291,1840,75,1845,-0.361,-0.030,0.997,1.24,1.92,-0.98,R
,1565301,1834,102,1841,-0.346,-0.039,0.962,2.28,1.86,0.02,R
,1565311,1836,85,1851,-0.347,-0.043,0.963,0.07,1.95,0.73,R
,1565321,1844,83,1845,-0.340,-0.040,0.955,-1.92,1.80,-0.28,R
,1565331,1878,80,1845,-0.359,-0.044,0.973,-4.65,2.18,-0.56,R
,1565341,1882,179,1846,-0.360,-0.053,0.965,-3.23,1.11,-1.40,R
,1565351,1913,176,1845,-0.372,-0.049,0.949,-2.39,1.13,-0.48,R
,1565361,1905,182,1842,-0.372,-0.040,0.948,-2.67,0.47,0.09,R
,1565371,1915,221,1841,-0.358,-0.044,0.957,-0.77,-1.19,-0.98,R
,1565381,1915,224,1843,-0.370,-0.044,0.964,0.26,-1.95,-0.78,R
,1565391,1892,214,1840,-0.362,-0.047,0.965,3.41,-1.88,-0.80,R
,1565401,1853,210,1840,-0.356,-0.044,0.965,7.27,-1.68,-1.95,R
,1565411,1846,208,1841,-0.358,-0.044,0.963,9.07,-0.93,-1.38,R
,1565421,1838,196,1846,-0.365,-0.032,0.962,10.32,0.35,0.04,R
,1565431,1811,149,1844,-0.359,-0.026,0.956,8.43,1.57,1.17,R
,1565441,1792,131,1845,-0.352,-0.029,0.964,4.54,1.66,0.44,R
,1565451,1767,80,1851,-0.361,-0.034,0.971,0.87,0.15,-0.19,R
,1565461,1776,157,1851,-0.365,-0.042,0.966,0.87,-1.80,-0.10,R
,1565471,1775,147,1854,-0.329,-0.049,0.961,1.41,-2.57,-1.37,R
,1565481,1775,107,1845,-0.329,-0.053,0.963,-1.20,-1.01,-1.00,R
,1565491,1791,222,1843,-0.332,-0.043,0.957,0.49,0.41,0.48,R
,1565501,1796,240,1843,-0.307,-0.038,0.948,3.32,2.35,-0.46,R
,1565511,1782,250,1843,-0.308,-0.045,0.966,7.84,4.81,-1.53,R
,1565521,1815,247,1840,-0.312,-0.031,0.963,9.56,7.77,-1.50,R
,1565531,1864,245,1843,-0.325,-0.024,0.979,13.26,10.31,-0.46,R
,1565541,1869,251,1840,-0.326,-0.001,0.987,11.94,11.94,-0.74,R
,1565551,1902,244,1844,-0.344,0.014,0.974,10.42,11.50,-1.52,R
,1565561,1905,242,1847,-0.378,0.023,0.974,9.12,9.14,-1.00,R
,1565571,1915,249,1847,-0.379,0.034,0.947,5.50,5.16,-1.87,R
,1565581,1918,258,1843,-0.384,0.015,0.935,3.30,-0.37,-4.68,R
,1565591,1919,249,1850,-0.374,-0.001,0.955,-0.94,-2.78,-4.16,R
,1565601,1936,235,1847,-0.368,-0.017,0.973,-2.42,-3.51,-3.84,R
,1565611,1943,235,1845,-0.363,-0.024,0.971,-2.94,-2.03,-2.75,R
,1565621,1947,241,1845,-0.370,-0.028,0.969,-3.28,-0.67,-0.91,R
,1565631,1937,237,1847,-0.368,-0.028,0.957,-3.48,-1.01,-0.77,R
,1565641,1919,251,1846,-0.380,-0.011,0.956,-4.93,-1.11,1.23,R
,1565651,1915,238,1845,-0.374,0.005,0.962,-5.60,-1.11,1.83,R
,1565661,1928,230,1842,-0.367,0.008,0.957,-5.19,-1.45,0.07,R
,1565671,1933,241,1849,-0.377,-0.002,0.977,-6.06,-2.21,-0.59,R
,1565681,1929,243,1847,-0.365,-0.022,0.980,-3.89,-3.65,-2.74,R
,1565691,1933,233,1847,-0.358,-0.037,0.989,-3.06,-2.84,-3.35,R
,1565701,1934,240,1842,-0.344,-0.048,0.973,-2.19,-1.53,-3.38,R
,1565711,1938,258,1843,-0.337,-0.058,0.970,-1.19,-0.73,-3.61,R
,1565721,1971,256,1846,-0.332,-0.068,0.958,1.32,-0.08,-4.45,R
,1565731,1943,269,1847,-0.358,-0.042,0.943,1.36,1.88,-2.07,R
,1565741,1971,265,1846,-0.355,-0.030,0.952,2.02,2.38,-0.89,R
,1565751,1986,269,1853,-0.340,-0.038,0.957,2.11,1.79,-2.36,R
,1565761,2000,251,1847,-0.360,-0.036,0.971,-0.50,2.08,-2.08,R
,1565771,2003,262,1845,-0.359,-0.042,0.964,0.57,0.89,-1.91,R
,1565781,1983,262,1846,-0.368,-0.019,0.964,-1.28,1.79,-1.11,R
,1565791,1992,254,1843,-0.356,-0.031,0.974,-0.77,0.95,-2.31,R
,1565801,1967,259,1846,-0.374,-0.030,0.969,-2.71,0.67,-1.32,R
,1565811,1957,260,1842,-0.367,-0.042,0.966,-2.74,-0.28,-0.05,R
,1565821,1957,229,1840,-0.360,-0.034,0.959,-3.05,0.21,0.63,R
,1565831,1958,250,1841,-0.358,-0.030,0.959,-3.83,0.49,0.89,R
,1565841,1974,272,1843,-0.368,-0.022,0.959,-2.32,0.15,0.45,R
,1565851,1952,267,1843,-0.378,-0.029,0.960,-2.30,-0.81,0.50,R
,1565861,1923,261,1842,-0.369,-0.025,0.966,-3.08,-2.03,0.09,R
,1565871,1917,254,1840,-0.362,-0.031,0.981,-3.68,-2.14,-0.33,R
,1565881,1925,271,1843,-0.357,-0.034,0.984,-2.85,-0.87,0.10,R
,1565891,1927,269,1846,-0.343,-0.039,0.969,-1.25,0.78,-0.54,R
,1565901,1937,282,1841,-0.348,-0.036,0.974,-1.49,2.90,0.13,R
,1565911,1889,275,1839,-0.349,-0.025,0.952,-0.21,3.13,-0.31,R
,1565921,1950,270,1840,-0.344,-0.038,0.943,-0.27,1.60,-0.88,R
,1565931,1917,264,1840,-0.350,-0.032,0.932,-2.30,-0.99,-2.28,R
,1565941,1887,270,1840,-0.365,-0.035,0.948,-0.77,-1.80,-2.45,R
,1565951,1863,259,1844,-0.358,-0.030,0.958,-0.53,-1.45,-2.45,R
,1565961,1874,257,1843,-0.364,-0.028,0.973,0.92,-1.86,-2.28,R
,1565971,1882,260,1840,-0.356,-0.030,0.975,2.22,-0.90,-1.17,R
,1565981,1895,258,1840,-0.347,-0.035,0.976,1.26,0.37,0.25,R
,1565991,1915,261,1843,-0.336,-0.039,0.974,-0.64,0.38,0.05,R
,1566001,1921,265,1841,-0.360,-0.027,0.971,-1.83,0.40,0.97,R
,1566011,1904,268,1842,-0.354,-0.031,0.974,-1.23,0.20,1.23,R
,1566021,1911,263,1841,-0.345,-0.037,0.953,-1.93,0.52,0.85,R
,1566031,1905,267,1840,-0.363,-0.031,0.947,-2.29,0.27,1.08,R
,1566041,1898,253,1841,-0.364,-0.030,0.953,-2.38,-0.90,0.82,R
,1566051,1877,249,1842,-0.363,-0.031,0.955,-3.17,-1.99,0.70,R
,1566061,1878,253,1843,-0.367,-0.031,0.957,-3.86,-2.87,0.83,R
,1566071,1877,247,1842,-0.362,-0.028,0.966,-4.06,-2.75,0.97,R
,1566081,1869,244,1846,-0.363,-0.015,0.997,-4.81,-1.05,2.16,R
,1566091,1869,240,1844,-0.353,-0.037,1.000,-3.06,0.12,1.28,R
,1566101,1853,251,1845,-0.360,-0.041,0.970,-2.90,0.44,0.80,R
,1566111,1862,253,1847,-0.350,-0.050,0.972,-0.87,-0.29,-0.04,R
,1566121,1861,242,1848,-0.350,-0.042,0.958,-1.58,0.46,0.30,R
,1566131,1862,247,1853,-0.360,-0.041,0.966,-1.32,0.15,0.01,R
,1566141,1855,242,1847,-0.358,-0.049,0.939,0.25,-0.44,-0.54,R
,1566151,1858,238,1843,-0.369,-0.051,0.944,0.49,-1.54,-0.80,R
,1566161,1827,239,1843,-0.366,-0.046,0.954,0.05,-2.75,-0.94,R
,1566171,1815,230,1843,-0.373,-0.040,0.957,-0.38,-3.65,-1.55,R
,1566181,1776,228,1845,-0.369,-0.051,0.977,-0.15,-4.69,-1.95,R
,1566191,1733,243,1843,-0.358,-0.045,0.989,0.20,-4.63,-1.69,R
,1566201,1719,252,1841,-0.356,-0.049,0.981,0.94,-3.76,-1.26,R
,1566211,1692,253,1845,-0.339,-0.050,0.969,-0.41,-2.64,-0.75,R
,1566221,1735,245,1842,-0.335,-0.051,0.979,-3.37,-3.28,0.07,R
,1566231,1730,252,1851,-0.340,-0.044,0.982,-1.83,-2.43,0.70,R
,1566241,1719,273,1846,-0.344,-0.034,0.963,-1.10,-1.60,0.96,R
,1566251,1711,272,1845,-0.357,-0.021,0.973,-1.66,0.35,1.70,R
,1566261,1717,279,1845,-0.367,-0.022,0.974,-1.02,-0.34,1.35,R
,1566271,1725,279,1849,-0.357,-0.020,0.963,-1.51,-1.18,1.47,R
,1566281,1727,278,1847,-0.346,-0.031,0.972,-2.00,-3.27,0.01,R
,1566291,1721,287,1840,-0.347,-0.038,0.961,-1.61,-4.18,-1.04,R
,1566301,1733,287,1846,-0.347,-0.038,0.950,-2.21,-3.05,-0.49,R
,1566311,1740,296,1845,-0.342,-0.040,0.958,-0.82,-0.18,-0.14,R
,1566321,1744,304,1842,-0.343,-0.033,0.969,-1.80,0.99,0.86,R
,1566331,1744,298,1843,-0.356,-0.038,0.984,-0.64,0.72,1.31,R
,1566341,1791,304,1843,-0.352,-0.034,0.971,-1.14,0.03,1.92,R
,1566351,1790,300,1845,-0.350,-0.026,0.976,-2.44,-1.02,1.64,R
,1566361,1781,304,1850,-0.360,-0.021,0.967,-4.10,-1.33,2.33,R
,1566371,1789,297,1845,-0.344,-0.034,0.979,-3.83,-1.95,2.12,R
,1566381,1790,288,1843,-0.331,-0.046,0.983,-4.01,-2.37,1.28,R
,1566391,1788,309,1849,-0.341,-0.049,0.968,-2.62,-2.34,1.35,R
,1566401,1792,304,1847,-0.336,-0.051,0.965,-2.30,-0.84,2.21,R
,1566411,1791,273,1843,-0.361,-0.050,0.940,-2.01,0.18,3.40,R
,1566421,1792,281,1844,-0.338,-0.047,0.945,-1.55,2.47,2.97,R
,1566431,1803,270,1847,-0.351,-0.035,0.958,-2.99,2.43,1.61,R
,1566441,1799,272,1843,-0.366,-0.038,0.967,-1.68,1.95,2.31,R
,1566451,1807,265,1843,-0.357,-0.037,0.965,-1.74,1.25,1.87,R
,1566461,1793,271,1847,-0.366,-0.031,0.962,-2.77,0.06,1.02,R
,1566471,1794,263,1847,-0.368,-0.031,0.957,-3.54,-1.42,0.73,R
,1566481,1789,267,1845,-0.343,-0.058,0.976,-0.74,-2.76,-0.77,R
,1566491,1792,264,1843,-0.347,-0.053,0.973,-1.77,-1.71,-1.20,R
,1566501,1789,268,1846,-0.342,-0.065,0.973,1.81,-0.38,-1.49,R
,1566511,1794,265,1842,-0.344,-0.063,0.956,2.57,1.92,-0.56,R
,1566521,1793,262,1842,-0.350,-0.058,0.946,2.57,3.62,-0.37,R
,1566531,1791,268,1843,-0.354,-0.053,0.959,3.50,3.31,-0.75,R
,1566541,1793,265,1840,-0.370,-0.046,0.956,2.49,2.29,0.02,R
,1566551,1795,270,1842,-0.356,-0.037,0.958,1.97,0.92,-0.74,R
,1566561,1803,262,1842,-0.373,-0.030,0.964,0.36,-0.37,-1.17,R
,1566571,1797,261,1843,-0.365,-0.029,0.979,-0.71,-1.47,-1.44,R
,1566581,1794,229,1847,-0.369,-0.034,0.968,-0.79,-2.02,-1.85,R
,1566591,1785,246,1851,-0.348,-0.039,0.968,-2.10,-2.03,-0.78,R
,1566601,1779,250,1847,-0.344,-0.041,0.972,-2.35,-1.69,-0.60,R
,1566611,1781,254,1844,-0.343,-0.042,0.980,-1.52,-0.79,-0.62,R
,1566621,1783,261,1846,-0.346,-0.035,0.965,-1.05,-0.06,-0.43,R
,1566631,1782,272,1843,-0.346,-0.035,0.966,-0.09,-0.44,-0.22,R
,1566641,1780,208,1845,-0.349,-0.033,0.959,-0.85,-1.13,-0.74,R
,1566651,1779,238,1850,-0.352,-0.042,0.958,-0.38,-0.69,-0.37,R
,1566661,1741,235,1846,-0.336,-0.039,0.969,0.20,-1.56,-1.88,R
,1566671,1747,240,1843,-0.350,-0.039,0.969,-0.56,-2.23,-2.17,R
,1566681,1744,240,1844,-0.350,-0.044,0.964,-0.44,-1.83,-0.91,R
,1566691,1759,234,1851,-0.340,-0.047,0.972,-1.22,-2.08,-1.03,R
,1566701,1761,239,1845,-0.345,-0.042,0.975,-1.97,-1.16,-0.74,R
,1566711,1756,256,1845,-0.348,-0.034,0.990,-1.57,0.85,0.36,R
,1566721,1770,269,1846,-0.344,-0.037,0.995,0.02,2.17,0.31,R
,1566731,1841,272,1851,-0.347,-0.036,0.981,0.02,2.31,0.24,R
,1566741,1867,285,1851,-0.358,-0.039,0.966,-0.09,0.84,0.85,R
,1566751,1872,286,1849,-0.341,-0.038,0.954,-0.68,-0.14,-0.36,R
,1566761,1891,290,1849,-0.349,-0.051,0.953,-0.82,-0.26,-0.39,R
,1566771,1891,295,1849,-0.348,-0.050,0.957,-0.55,-0.37,0.24,R
,1566781,1904,301,1850,-0.347,-0.043,0.953,0.84,1.22,0.47,R
,1566791,1903,293,1847,-0.347,-0.047,0.968,-0.29,1.51,0.54,R
,1566801,1914,303,1846,-0.353,-0.049,0.982,-0.33,0.73,0.44,R
,1566811,1913,285,1851,-0.358,-0.039,0.967,-0.19,0.05,0.38,R
,1566821,1921,302,1849,-0.362,-0.035,0.966,-0.41,-0.43,0.01,R
,1566831,1923,304,1846,-0.372,-0.023,0.971,-1.31,-0.53,0.89,R
,1566841,1932,315,1847,-0.359,-0.034,0.974,-1.97,-1.18,0.44,R
,1566851,1943,298,1845,-0.355,-0.035,0.971,-3.23,-1.47,-0.14,R
,1566861,1946,319,1840,-0.356,-0.042,0.976,-3.23,-1.68,-0.24,R
,1566871,1951,309,1842,-0.353,-0.041,0.966,-2.15,-0.47,-0.39,R
,1566881,1971,310,1845,-0.346,-0.058,0.971,0.11,0.05,-0.72,R
,1566891,1977,320,1846,-0.338,-0.048,0.968,0.80,1.40,-0.62,R
,1566901,1985,329,1847,-0.346,-0.048,0.966,0.63,2.37,0.36,R
,1566911,1994,320,1845,-0.354,-0.032,0.960,-1.69,2.66,0.97,R
,1566921,2010,316,1846,-0.359,-0.038,0.960,-2.35,0.82,1.14,R
,1566931,2017,322,1852,-0.358,-0.038,0.975,-2.76,0.23,1.84,R
,1566941,1999,310,1843,-0.345,-0.049,0.973,-2.51,-0.75,1.52,R
,1566951,2012,315,1842,-0.353,-0.037,0.953,-3.10,-0.53,1.54,R
,1566961,2013,313,1841,-0.342,-0.044,0.955,-3.02,-1.63,0.12,R
,1566971,2007,331,1839,-0.357,-0.047,0.956,-3.37,-2.28,-0.60,R
,1566981,2004,330,1840,-0.360,-0.045,0.956,-1.74,-2.95,-0.74,R
,1566991,2032,333,1840,-0.354,-0.051,0.951,-0.04,-2.58,-0.75,R
,1567001,2035,331,1840,-0.348,-0.055,0.961,-0.81,-2.98,-1.82,R
,1567011,2065,336,1840,-0.352,-0.059,0.977,-1.28,-2.89,-1.84,R
,1567021,2075,335,1840,-0.348,-0.059,0.965,-0.88,-2.87,-1.75,R
,1567031,2077,345,1841,-0.350,-0.048,0.963,-1.49,-2.00,-0.95,R
,1567041,2080,341,1840,-0.337,-0.045,0.978,-1.60,-1.13,-0.71,R
,1567051,2095,330,1841,-0.342,-0.043,0.979,-0.76,-0.11,-0.59,R
,1567061,2111,336,1845,-0.344,-0.047,0.978,0.32,-0.38,-0.25,R
,1567071,2112,346,1843,-0.349,-0.048,0.980,0.45,0.31,0.25,R
,1567081,2126,351,1841,-0.348,-0.036,0.977,-0.99,0.66,1.03,R
,1567091,2135,357,1840,-0.341,-0.040,0.975,-1.02,1.25,0.36,R
,1567101,2146,368,1839,-0.341,-0.048,0.969,-1.98,0.40,-1.00,R
,1567111,2160,347,1846,-0.352,-0.046,0.964,-1.71,-0.21,-0.89,R
,1567121,2171,347,1841,-0.340,-0.044,0.962,-1.23,-1.28,-1.30,R
,1567131,2175,377,1844,-0.338,-0.044,0.959,-2.22,-1.19,-1.03,R
,1567141,2187,370,1841,-0.344,-0.037,0.968,-2.55,-0.95,-0.40,R
,1567151,2189,373,1845,-0.338,-0.045,0.969,-2.10,0.84,-0.08,R
,1567161,2183,369,1840,-0.345,-0.054,0.972,-1.26,0.99,-0.19,R
,1567171,2181,367,1840,-0.348,-0.055,0.968,-1.97,1.22,0.31,R
,1567181,2192,358,1843,-0.357,-0.042,0.964,-1.34,1.24,0.79,R
,1567191,2192,365,1847,-0.345,-0.045,0.968,-1.93,1.28,0.94,R
,1567201,2209,358,1843,-0.355,-0.044,0.977,-3.08,0.99,0.89,R
,1567211,2203,369,1845,-0.369,-0.046,0.975,-3.51,-0.69,0.54,R
,1567221,2210,365,1843,-0.338,-0.061,0.959,-0.24,-1.10,-1.27,R
,1567231,2211,351,1847,-0.346,-0.066,0.969,-0.55,0.20,-0.75,R
,1567241,2220,317,1840,-0.344,-0.056,0.963,0.98,-0.20,-0.72,R
,1567251,2225,339,1840,-0.336,-0.060,0.970,1.30,0.34,0.24,R
,1567261,2224,332,1844,-0.339,-0.056,0.958,-0.36,0.15,-0.19,R
,1567271,2227,313,1847,-0.357,-0.064,0.965,2.46,-0.46,-0.36,R
,1567281,2224,305,1846,-0.348,-0.051,0.961,1.07,0.46,-1.01,R
,1567291,2249,311,1847,-0.346,-0.066,0.984,0.92,1.33,-1.00,R
,1567301,2256,310,1843,-0.355,-0.045,0.984,0.90,3.86,-0.22,R
,1567311,2265,304,1846,-0.329,-0.088,1.026,3.84,5.66,-0.75,R
,1567321,2288,306,1843,-0.334,-0.079,1.019,4.63,9.11,-0.68,R
,1567331,2288,305,1846,-0.332,-0.066,0.996,4.45,12.35,1.38,R
,1567341,2288,296,1841,-0.338,-0.041,0.973,2.65,14.23,2.88,R
,1567351,2290,253,1845,-0.354,-0.032,0.949,-0.87,14.12,2.76,R
,1567361,2276,283,1841,-0.378,-0.023,0.931,-2.84,12.53,2.85,R
,1567371,2274,272,1842,-0.373,-0.022,0.908,-4.04,8.79,1.61,R
,1567381,2284,259,1841,-0.401,-0.012,0.940,-4.76,4.01,1.31,R
,1567391,2303,268,1843,-0.380,-0.018,0.915,-3.02,0.09,0.09,R
,1567401,2305,285,1840,-0.373,-0.039,0.965,-3.87,-1.47,0.68,R
,1567411,2301,290,1840,-0.354,-0.052,0.970,-3.98,-2.58,-1.44,R
,1567421,2304,304,1840,-0.343,-0.074,0.975,0.31,-2.02,-1.17,R
,1567431,2321,315,1841,-0.327,-0.083,0.971,0.61,1.74,-0.63,R
,1567441,2331,297,1845,-0.341,-0.080,0.958,0.45,3.50,0.36,R
,1567451,2337,292,1849,-0.353,-0.074,0.925,1.87,4.03,0.42,R
,1567461,2329,272,1847,-0.375,-0.053,0.939,1.44,2.56,1.58,R
,1567471,2339,297,1845,-0.370,-0.037,0.951,0.57,1.33,1.25,R
,1567481,2335,298,1846,-0.370,-0.041,0.977,0.26,-1.10,-0.74,R
,1567491,2327,297,1847,-0.381,-0.031,0.971,-0.41,-2.18,-1.66,R
,1567501,2330,301,1851,-0.380,-0.034,0.989,0.20,-3.22,-1.17,R
,1567511,2334,298,1842,-0.372,-0.027,0.971,-1.89,-2.50,-0.27,R
,1567521,2331,291,1846,-0.363,-0.036,0.968,-3.13,-0.93,-0.07,R
,1567531,2344,287,1847,-0.362,-0.045,0.975,-2.87,1.05,0.86,R
,1567541,2353,298,1842,-0.346,-0.053,0.964,-1.39,2.49,1.43,R
,1567551,2348,289,1849,-0.348,-0.058,0.968,0.48,3.39,0.82,R
,1567561,2352,297,1846,-0.342,-0.056,0.959,0.05,3.59,0.99,R
,1567571,2349,308,1845,-0.362,-0.060,0.944,0.40,3.10,0.45,R
,1567581,2341,315,1842,-0.370,-0.052,0.928,0.10,1.63,-1.11,R
,1567591,2345,321,1842,-0.394,-0.044,0.955,-1.17,0.31,-0.10,R
,1567601,2345,314,1842,-0.372,-0.050,0.974,-0.51,-0.78,-1.50,R
,1567611,2337,331,1840,-0.378,-0.049,0.982,-2.13,-1.07,-1.44,R
,1567621,2352,327,1840,-0.361,-0.055,0.975,-1.71,0.37,-1.46,R
,1567631,2346,326,1840,-0.353,-0.062,0.983,-1.08,1.77,-1.33,R
,1567641,2341,350,1840,-0.355,-0.068,0.969,0.68,3.14,-0.48,R
,1567651,2343,323,1844,-0.355,-0.074,0.955,1.47,3.53,-0.62,R
,1567661,2322,323,1841,-0.373,-0.055,0.942,1.00,2.49,-0.57,R
,1567671,2335,320,1841,-0.370,-0.053,0.945,2.07,0.40,-0.16,R
,1567681,2320,317,1842,-0.366,-0.043,0.954,1.78,-1.66,-1.61,R
,1567691,2320,320,1843,-0.381,-0.045,0.951,1.44,-3.80,-2.02,R
,1567701,2319,325,1843,-0.372,-0.046,0.953,3.32,-3.48,-2.10,R
,1567711,2317,334,1846,-0.363,-0.038,0.958,2.29,-1.73,-1.88,R
,1567721,2307,335,1843,-0.349,-0.044,0.966,3.30,-1.22,-1.99,R
,1567731,2321,327,1849,-0.327,-0.068,0.954,5.45,-0.43,-3.23,R
,1567741,2315,306,1840,-0.339,-0.052,0.956,4.40,1.62,-1.18,R
,1567751,2310,329,1841,-0.339,-0.053,0.963,6.49,4.26,0.47,R
,1567761,2309,336,1840,-0.351,-0.033,0.954,3.55,5.45,1.89,R
,1567771,2303,336,1844,-0.373,-0.029,0.952,1.84,3.31,1.69,R
,1567781,2310,335,1843,-0.392,-0.022,0.948,1.39,-0.12,1.76,R
,1567791,2291,336,1846,-0.392,-0.017,0.965,-0.38,-3.16,0.34,R
,1567801,2286,335,1846,-0.396,-0.008,0.983,-1.84,-5.56,-0.02,R
,1567811,2279,336,1843,-0.373,-0.025,0.981,-1.74,-6.08,-0.54,R
,1567821,2272,336,1840,-0.360,-0.039,0.973,-2.97,-6.12,-0.22,R
,1567831,2254,333,1840,-0.348,-0.050,0.959,-2.04,-5.22,-0.37,R
,1567841,2240,308,1840,-0.335,-0.059,0.950,-0.51,-3.89,-0.16,R
,1567851,2211,307,1842,-0.345,-0.054,0.964,0.31,-2.26,0.30,R
,1567861,2199,304,1843,-0.338,-0.064,0.978,1.56,0.31,2.09,R
,1567871,2192,314,1843,-0.336,-0.045,0.966,0.03,1.53,1.46,R
,1567881,2192,304,1840,-0.366,-0.043,0.972,-0.38,1.31,1.03,R
,1567891,2187,304,1841,-0.367,-0.033,0.964,-1.68,0.24,1.93,R
,1567901,2162,304,1840,-0.375,-0.042,0.958,-3.05,-1.45,1.49,R
,1567911,2153,304,1841,-0.374,-0.051,0.940,-3.35,-3.36,0.24,R
,1567921,2138,314,1840,-0.368,-0.057,0.947,-1.43,-4.23,-0.56,R
,1567931,2137,304,1841,-0.364,-0.053,0.950,-0.41,-2.05,0.68,R
,1567941,2138,309,1840,-0.343,-0.050,0.960,0.57,-0.70,0.47,R
,1567951,2128,286,1840,-0.357,-0.049,0.969,0.78,-0.09,0.86,R
,1567961,2112,285,1839,-0.358,-0.049,0.958,1.84,0.03,1.12,R
,1567971,2091,279,1840,-0.367,-0.045,0.954,0.83,0.18,0.83,R
,1567981,2083,268,1837,-0.363,-0.040,0.975,-0.59,-0.00,0.65,R
,1567991,2033,268,1840,-0.360,-0.039,0.983,-1.49,-0.53,0.34,R
,1568001,2011,271,1840,-0.372,-0.039,0.973,-2.35,-0.24,1.05,R
,1568011,2000,251,1842,-0.361,-0.033,0.963,-2.47,0.89,1.03,R
,1568021,1966,257,1843,-0.352,-0.044,0.964,-1.89,1.08,0.57,R
,1568031,1866,272,1841,-0.360,-0.049,0.950,-0.21,0.89,0.47,R
,1568041,1773,250,1841,-0.355,-0.048,0.949,1.27,1.51,0.44,R
,1568051,1754,240,1844,-0.349,-0.054,0.960,2.07,2.31,0.97,R
,1568061,1689,219,1847,-0.351,-0.051,0.990,2.68,2.81,0.05,R
,1568071,1680,223,1841,-0.361,-0.055,0.984,3.30,3.71,0.04,R
,1568081,1637,208,1842,-0.369,-0.050,0.989,4.00,4.26,1.26,R
,1568091,1641,58,1845,-0.376,-0.041,0.994,5.58,6.20,1.86,R
,1568101,1633,53,1842,-0.369,-0.030,0.984,5.79,6.53,1.06,R
,1568111,1633,48,1843,-0.372,-0.030,0.976,5.13,4.95,0.27,R
,1568121,1630,48,1840,-0.372,-0.044,0.936,4.08,1.91,-0.59,R
,1568131,1590,1,1846,-0.353,-0.057,0.928,3.49,-1.66,-0.69,R
,1568141,1524,0,1845,-0.349,-0.060,0.919,3.84,-3.77,-1.33,R
,1568151,1495,0,1844,-0.353,-0.061,0.931,4.97,-4.86,-2.24,R
,1568161,1451,0,1844,-0.344,-0.062,0.942,5.76,-6.40,-3.21,R
,1568171,1405,0,1843,-0.350,-0.056,0.957,5.56,-6.43,-2.82,R
,1568181,1391,0,1842,-0.356,-0.034,0.972,4.75,-4.92,-1.53,R
,1568191,1351,0,1841,-0.358,-0.030,0.991,4.07,-2.52,0.93,R
,1568201,1335,0,1841,-0.355,-0.031,1.020,4.51,0.20,2.31,R
,1568211,1270,0,1840,-0.352,-0.035,1.005,3.39,3.54,3.32,R
,1568221,1210,0,1841,-0.352,-0.025,1.003,2.51,4.69,3.09,R
,1568231,1137,0,1841,-0.373,-0.021,0.991,3.68,5.34,3.20,R
,1568241,1094,0,1840,-0.378,-0.010,0.962,4.61,4.66,3.47,R
,1568251,1088,0,1843,-0.373,-0.015,0.946,6.20,3.25,2.82,R
,1568261,1083,0,1842,-0.384,-0.005,0.939,6.45,1.24,1.14,R
,1568271,1109,0,1840,-0.370,-0.038,0.977,3.18,-2.44,1.17,R
,1568281,1051,0,1841,-0.373,-0.028,0.907,2.68,-9.27,-1.70,R
,1568291,1141,0,1843,-0.380,-0.036,0.884,0.65,-15.34,-2.30,R
,1568301,1136,0,1839,-0.378,-0.027,0.908,0.32,-19.08,-1.76,R
,1568311,1119,0,1840,-0.366,-0.019,0.940,-0.13,-18.41,-0.89,R
,1568321,1072,0,1840,-0.352,-0.013,0.977,1.32,-14.44,-0.49,R
,1568331,1054,0,1840,-0.342,-0.006,0.988,-0.51,-11.18,-0.59,R
,1568341,912,0,1838,-0.347,-0.006,0.999,-1.11,-9.36,-0.95,R
,1568351,853,0,1840,-0.346,-0.025,1.017,-0.32,-9.27,-0.91,R
,1568361,858,0,1835,-0.343,-0.040,1.007,2.71,-10.50,-2.02,R
,1568371,849,0,1835,-0.339,-0.044,1.004,1.30,-11.30,-1.69,R
,1568381,830,0,1839,-0.344,-0.045,0.997,1.45,-12.90,-1.84,R
,1568391,807,0,1845,-0.357,-0.035,0.972,1.78,-15.25,-0.68,R
,1568401,768,0,1843,-0.357,-0.026,0.985,2.54,-16.95,-0.14,R
,1568411,768,0,1850,-0.359,-0.027,0.982,1.27,-18.06,0.34,R
,1568421,747,0,1847,-0.366,0.006,0.996,-0.30,-17.22,1.69,R
,1568431,752,0,1841,-0.363,-0.016,1.008,-0.90,-21.16,0.76,R
,1568441,719,0,1840,-0.364,-0.000,0.962,-5.05,-22.69,0.41,R
,1568451,711,0,1840,-0.338,-0.039,1.022,-4.15,-24.61,-2.31,R
,1568461,683,0,1840,-0.321,-0.038,1.037,-6.18,-28.41,-3.90,R
,1568471,603,0,1840,-0.303,-0.042,1.031,-7.20,-32.08,-5.52,R
,1568481,465,0,1840,-0.304,-0.060,1.015,-3.97,-33.13,-4.31,R
,1568491,149,0,1841,-0.285,-0.057,1.017,-2.48,-30.32,-3.35,R
,1568501,144,0,1843,-0.263,-0.066,1.009,-2.33,-24.23,-0.89,R
,1568511,0,0,1840,-0.258,-0.052,0.989,-1.42,-19.88,-0.51,R
,1568521,0,0,1840,-0.267,-0.037,0.979,0.34,-16.02,-0.16,R
,1568531,0,0,1840,-0.273,-0.048,0.991,2.48,-12.20,-0.28,R
,1568541,0,0,1840,-0.273,-0.032,0.964,1.87,-10.58,0.91,R
,1568551,0,0,1841,-0.279,-0.025,0.977,0.77,-9.69,0.25,R
,1568561,0,0,1840,-0.284,-0.026,0.982,-0.19,-9.97,-1.24,R
,1568571,0,0,1840,-0.278,-0.029,1.002,-1.00,-10.47,-1.90,R
,1568581,0,0,1840,-0.280,-0.032,1.005,-1.98,-10.73,-1.91,R
,1568591,0,0,1840,-0.283,-0.043,1.034,-1.84,-13.19,-3.69,R
,1568601,0,0,1842,-0.278,-0.056,1.030,-1.64,-15.97,-4.94,R
,1568611,0,0,1840,-0.274,-0.047,1.034,-1.84,-18.06,-5.01,R
,1568621,0,0,1840,-0.266,-0.038,1.031,-0.82,-18.82,-4.14,R
,1568631,0,0,1842,-0.261,-0.034,1.010,-0.64,-17.05,-2.94,R
,1568641,0,0,1841,-0.262,-0.026,0.999,0.36,-14.28,-1.47,R
,1568651,0,0,1840,-0.264,-0.042,0.993,-0.29,-10.95,-1.50,R
,1568661,0,0,1840,-0.265,-0.027,0.995,-0.15,-8.73,-0.16,R
,1568671,0,0,1840,-0.273,-0.022,0.987,0.43,-6.73,0.73,R
,1568681,0,0,1840,-0.273,-0.021,0.973,-0.01,-5.89,1.66,R
,1568691,0,0,1840,-0.268,-0.018,0.968,-1.39,-5.08,2.47,R
,1568701,0,0,1841,-0.259,-0.023,0.983,-2.15,-4.38,2.53,R
,1568711,0,0,1843,-0.251,-0.036,0.970,-1.64,-4.06,1.25,R
,1568721,0,0,1843,-0.255,-0.045,0.966,-1.02,-3.91,-0.20,R
,1568731,0,0,1841,-0.256,-0.038,0.971,0.39,-3.16,-0.71,R
,1568741,0,0,1845,-0.262,-0.036,0.970,2.83,-1.30,-0.91,R
,1568751,0,0,1850,-0.264,-0.031,0.979,3.36,0.15,-0.40,R
,1568761,0,0,1849,-0.264,-0.034,0.975,4.34,1.08,-0.02,R
,1568771,0,0,1845,-0.262,-0.033,0.978,4.61,1.65,-0.07,R
,1568781,0,0,1845,-0.249,-0.038,1.016,7.21,0.70,-0.19,R
,1568791,0,0,1846,-0.245,-0.039,0.997,11.03,1.22,-1.58,R
,1568801,0,0,1842,-0.257,-0.028,0.991,7.78,4.96,1.46,R
,1568811,0,0,1843,-0.252,-0.036,1.005,8.19,5.82,1.18,R
,1568821,0,0,1841,-0.231,-0.046,1.014,10.74,4.50,-1.93,R
,1568831,0,0,1843,-0.236,-0.039,1.039,8.52,3.89,-2.92,R
,1568841,0,0,1841,-0.243,-0.044,1.027,5.67,5.51,-2.07,R
,1568851,0,0,1839,-0.245,-0.041,1.035,5.52,3.62,-3.24,R
,1568861,0,0,1840,-0.250,-0.041,1.014,5.81,1.33,-4.05,R
,1568871,3,0,1841,-0.244,-0.047,1.022,6.90,-1.57,-5.85,R
,1568881,1,0,1840,-0.241,-0.045,1.021,9.03,-3.50,-7.58,R
,1568891,15,0,1840,-0.251,-0.038,1.017,9.56,-4.09,-7.26,R
,1568901,22,0,1841,-0.250,-0.030,1.008,11.88,-4.34,-7.06,R
,1568911,19,0,1840,-0.247,-0.022,0.998,11.73,-4.29,-7.96,R
,1568921,16,0,1840,-0.249,-0.017,0.997,11.53,-5.08,-8.77,R
,1568931,16,0,1849,-0.243,-0.019,0.990,12.49,-7.34,-9.95,R
,1568941,16,0,1847,-0.230,-0.019,0.998,13.24,-9.31,-11.32,R
,1568951,16,0,1847,-0.231,-0.017,0.982,13.03,-8.78,-11.81,R
,1568961,23,0,1845,-0.218,-0.020,0.984,13.59,-7.69,-12.20,R
,1568971,15,0,1841,-0.224,-0.009,0.976,13.91,-5.07,-11.96,R
,1568981,23,0,1843,-0.226,-0.003,0.975,13.49,-2.32,-11.46,R
,1568991,22,0,1843,-0.231,-0.006,0.975,13.73,-0.60,-11.73,R
,1569001,0,0,1846,-0.231,-0.006,0.978,14.80,-1.94,-13.15,R
,1569011,31,0,1847,-0.239,0.007,0.983,14.17,-3.19,-13.44,R
,1569021,20,0,1850,-0.246,0.007,0.975,11.78,-4.50,-13.38,R
,1569031,43,0,1843,-0.253,0.017,0.990,10.45,-4.44,-12.24,R
,1569041,31,0,1840,-0.255,0.023,0.986,12.08,-3.73,-11.58,R
,1569051,0,0,1849,-0.248,0.023,0.985,12.65,-2.76,-11.44,R
,1569061,34,0,1846,-0.255,0.033,0.977,12.57,-0.81,-10.56,R
,1569071,32,0,1846,-0.263,0.035,0.990,12.20,0.06,-10.20,R
,1569081,33,0,1845,-0.265,0.040,0.986,10.71,0.63,-9.32,R
,1569091,29,0,1845,-0.273,0.042,0.982,10.08,-0.00,-9.32,R
,1569101,33,0,1846,-0.266,0.045,0.976,9.07,-1.19,-9.76,R
,1569111,31,0,1852,-0.258,0.042,0.974,7.79,-1.82,-9.98,R
,1569121,31,0,1852,-0.270,0.046,0.987,7.23,-0.96,-8.60,R
,1569131,2,0,1851,-0.271,0.055,0.982,7.64,0.40,-6.74,R
,1569141,41,0,1844,-0.263,0.053,0.986,6.65,0.76,-5.52,R
,1569151,37,0,1842,-0.260,0.055,0.993,5.56,0.24,-5.72,R
,1569161,39,0,1845,-0.272,0.059,0.990,4.65,-0.92,-5.62,R
,1569171,34,0,1844,-0.279,0.058,0.987,5.15,-1.63,-4.89,R
,1569181,44,0,1847,-0.272,0.059,0.993,5.09,-2.41,-4.16,R
,1569191,38,0,1843,-0.262,0.058,0.994,4.66,-3.36,-3.47,R
,1569201,43,0,1844,-0.263,0.055,0.992,5.03,-3.22,-3.35,R
,1569211,43,0,1846,-0.253,0.049,0.989,5.32,-2.24,-3.06,R
,1569221,47,0,1845,-0.244,0.047,0.977,5.82,-0.52,-2.45,R
,1569231,40,0,1842,-0.251,0.053,0.981,5.97,1.66,-1.59,R
,1569241,35,0,1841,-0.254,0.053,0.973,5.76,3.08,-0.56,R
,1569251,38,0,1849,-0.262,0.054,0.980,5.88,3.77,0.33,R
,1569261,38,0,1850,-0.262,0.059,0.969,4.78,3.54,1.06,R
,1569271,35,0,1847,-0.263,0.062,0.970,3.41,2.93,1.69,R
,1569281,47,0,1841,-0.262,0.065,0.977,1.58,1.76,1.58,R
,1569291,44,0,1845,-0.255,0.055,0.973,-0.13,0.32,1.52,R
,1569301,40,0,1843,-0.253,0.051,0.981,-1.77,-0.06,1.96,R
,1569311,28,0,1846,-0.253,0.052,0.988,-2.73,0.21,2.83,R
,1569321,41,0,1843,-0.250,0.040,0.980,-2.29,0.93,2.96,R
,1569331,32,0,1840,-0.246,0.035,0.980,-1.10,1.59,2.83,R
,1569341,43,0,1840,-0.244,0.034,0.994,0.48,2.40,3.05,R
,1569351,46,0,1840,-0.246,0.036,0.991,0.78,3.79,3.60,R
,1569361,41,0,1840,-0.240,0.033,1.005,0.45,4.43,3.15,R
,1569371,33,0,1840,-0.246,0.033,1.005,0.36,4.32,2.47,R
,1569381,42,0,1846,-0.248,0.029,1.003,0.39,2.64,1.73,R
,1569391,45,0,1847,-0.246,0.030,1.005,0.07,2.17,1.41,R
,1569401,48,0,1850,-0.244,0.029,1.008,0.25,1.91,1.41,R
,1569411,45,0,1847,-0.240,0.032,1.000,0.78,2.23,1.26,R
,1569421,48,0,1847,-0.238,0.038,0.993,1.13,3.18,1.15,R
,1569431,32,0,1846,-0.245,0.040,0.993,1.01,4.14,1.44,R
,1569441,31,0,1840,-0.252,0.046,0.996,0.71,4.08,1.75,R
,1569451,48,0,1845,-0.253,0.041,1.005,0.10,3.40,2.02,R
,1569461,39,0,1846,-0.253,0.047,1.000,0.19,2.79,1.98,R
,1569471,43,0,1850,-0.254,0.044,0.997,-0.10,2.46,1.78,R
,1569481,48,0,1843,-0.256,0.046,0.991,-0.77,2.53,1.46,R
,1569491,49,0,1840,-0.261,0.049,0.994,-0.58,1.89,1.35,R
,1569501,46,0,1846,-0.265,0.042,1.005,-0.48,1.39,0.93,R
,1569511,46,0,1841,-0.266,0.041,0.999,-0.41,1.07,1.20,R
,1569521,47,0,1850,-0.259,0.034,0.991,-0.47,0.61,0.60,R
,1569531,56,0,1850,-0.254,0.036,0.990,-0.94,0.87,0.28,R
,1569541,48,0,1847,-0.259,0.040,0.997,-0.87,1.68,0.34,R
,1569551,44,0,1847,-0.264,0.035,1.002,0.14,2.11,1.26,R
,1569561,49,0,1848,-0.255,0.035,0.997,0.16,2.90,1.47,R
,1569571,49,0,1845,-0.260,0.034,1.003,1.16,2.85,1.17,R
,1569581,55,0,1844,-0.258,0.035,0.996,1.64,2.24,0.89,R
,1569591,45,0,1846,-0.265,0.035,1.002,1.85,1.88,0.83,R
,1569601,45,0,1841,-0.263,0.041,0.995,1.32,1.04,1.02,R
,1569611,51,0,1842,-0.256,0.047,0.993,0.57,1.05,1.11,R
,1569621,63,0,1842,-0.257,0.044,0.996,-1.02,0.73,0.73,R
,1569631,55,0,1846,-0.256,0.042,0.999,-1.31,0.23,0.44,R
,1569641,68,0,1843,-0.257,0.039,0.998,-1.48,0.12,0.77,R
,1569651,61,0,1845,-0.254,0.037,1.003,-0.51,0.56,1.17,R
,1569661,67,0,1851,-0.258,0.035,1.002,0.39,1.05,1.47,R
,1569671,64,0,1846,-0.257,0.040,1.005,1.24,2.27,1.02,R
,1569681,75,0,1843,-0.260,0.042,0.997,2.11,2.89,1.05,R
,1569691,69,0,1843,-0.265,0.050,1.002,1.91,2.89,1.35,R
,1569701,70,0,1842,-0.262,0.052,0.991,1.29,1.80,1.58,R
,1569711,71,0,1843,-0.260,0.053,0.986,-0.51,1.30,1.99,R
,1569721,79,0,1842,-0.270,0.063,0.988,-2.48,-0.66,2.77,R
,1569731,81,0,1842,-0.252,0.046,0.997,-1.58,-1.30,2.41,R
,1569741,80,0,1846,-0.244,0.040,0.989,-3.35,-0.57,1.64,R
,1569751,80,0,1845,-0.251,0.044,0.986,-3.22,0.35,1.57,R
,1569761,80,0,1846,-0.260,0.042,0.997,-1.83,0.50,1.40,R
,1569771,82,0,1843,-0.257,0.040,0.994,-1.51,0.58,1.26,R
,1569781,82,0,1840,-0.256,0.038,1.009,-1.71,0.96,0.65,R
,1569791,87,0,1842,-0.246,0.026,1.001,-0.65,0.75,0.30,R
,1569801,87,0,1843,-0.256,0.028,0.994,0.69,1.68,-0.05,R
,1569811,98,0,1843,-0.253,0.030,0.987,2.37,2.63,0.30,R
,1569821,97,0,1842,-0.261,0.033,0.988,4.28,3.72,0.34,R
,1569831,103,0,1840,-0.263,0.042,0.986,4.71,4.53,0.63,R
,1569841,100,0,1840,-0.260,0.044,0.986,4.14,4.44,0.45,R
,1569851,99,0,1850,-0.267,0.043,0.978,4.22,5.08,0.85,R
,1569861,101,0,1846,-0.272,0.053,0.982,2.63,6.47,2.01,R
,1569871,94,0,1843,-0.281,0.063,0.979,-1.31,7.51,3.84,R
,1569881,98,0,1841,-0.286,0.062,0.984,-4.45,5.74,3.86,R
,1569891,100,0,1842,-0.275,0.061,0.981,-7.40,1.34,2.27,R
,1569901,98,0,1843,-0.278,0.039,1.000,-9.05,-3.28,0.41,R
,1569911,96,0,1843,-0.264,0.034,1.001,-7.60,-5.59,-0.69,R
,1569921,102,0,1842,-0.253,0.032,1.006,-6.15,-4.86,-0.63,R
,1569931,101,0,1846,-0.256,0.035,1.004,-3.32,-2.20,-0.74,R
,1569941,107,0,1843,-0.267,0.035,1.001,-0.13,1.21,-0.05,R
,1569951,108,0,1842,-0.267,0.042,0.998,2.43,4.12,1.14,R
,1569961,106,0,1845,-0.269,0.040,1.004,4.19,6.11,1.55,R
,1569971,99,0,1843,-0.274,0.051,0.996,4.84,6.29,1.69,R
,1569981,99,0,1843,-0.280,0.056,1.000,3.84,5.45,2.13,R
,1569991,112,0,1840,-0.275,0.055,0.991,1.35,3.54,1.78,R
,1570001,105,0,1841,-0.278,0.053,0.989,-0.99,2.35,1.60,R
,1570011,112,0,1846,-0.268,0.050,0.988,-2.85,0.11,0.63,R
,1570021,112,0,1842,-0.272,0.045,0.998,-4.67,-1.10,0.25,R
,1570031,112,0,1847,-0.269,0.034,1.003,-5.52,-2.09,-0.05,R
,1570041,112,0,1845,-0.263,0.038,0.994,-3.35,-2.12,-0.01,R
,1570051,107,0,1843,-0.266,0.049,0.982,-2.74,-0.86,0.02,R
,1570061,101,0,1844,-0.281,0.042,0.975,-0.16,1.10,0.94,R
,1570071,93,0,1843,-0.271,0.049,0.983,1.94,1.91,1.69,R
,1570081,111,0,1845,-0.268,0.052,0.985,1.47,2.84,2.05,R
,1570091,109,0,1846,-0.279,0.044,0.969,2.36,3.85,2.54,R
,1570101,103,0,1844,-0.273,0.045,0.971,1.52,4.20,2.74,R
,1570111,101,0,1845,-0.270,0.052,0.958,-0.44,4.24,2.44,R
,1570121,98,0,1843,-0.273,0.051,0.980,-2.30,3.77,2.25,R
,1570131,97,0,1849,-0.268,0.053,0.960,-3.77,2.95,1.99,R
,1570141,107,0,1846,-0.270,0.052,0.971,-5.51,3.13,1.86,R
,1570151,110,0,1845,-0.268,0.049,0.976,-6.07,3.76,2.22,R
,1570161,112,0,1847,-0.266,0.040,0.981,-6.39,4.50,2.42,R
,1570171,112,0,1843,-0.270,0.040,0.990,-6.01,5.89,2.91,R
,1570181,113,0,1841,-0.271,0.043,0.994,-4.18,6.50,3.20,R
,1570191,114,0,1840,-0.276,0.042,0.988,-2.16,7.22,3.63,R
,1570201,112,0,1839,-0.285,0.052,0.981,-0.79,8.44,3.96,R
,1570211,112,0,1840,-0.292,0.059,0.988,-0.53,8.24,4.50,R
,1570221,113,0,1840,-0.287,0.061,0.981,-2.01,6.72,4.25,R
,1570231,109,0,1841,-0.296,0.056,0.979,-4.18,5.42,4.31,R
,1570241,112,0,1842,-0.299,0.050,0.968,-5.75,4.38,4.57,R
,1570251,112,0,1847,-0.299,0.056,0.982,-8.19,4.35,6.05,R
,1570261,102,0,1843,-0.291,0.042,0.977,-8.55,5.18,6.01,R
,1570271,111,0,1847,-0.292,0.048,0.979,-10.04,7.14,6.47,R
,1570281,111,0,1843,-0.295,0.040,0.998,-10.19,7.16,6.25,R
,1570291,106,0,1842,-0.297,0.029,1.000,-9.42,5.22,6.01,R
,1570301,98,0,1845,-0.294,0.027,1.005,-8.64,3.47,5.60,R
,1570311,94,0,1845,-0.294,0.029,0.998,-6.65,2.47,5.28,R
,1570321,91,0,1844,-0.291,0.032,0.990,-5.08,2.52,5.31,R
,1570331,90,0,1845,-0.292,0.029,0.984,-4.27,3.53,5.17,R
,1570341,102,0,1842,-0.294,0.037,0.983,-4.09,5.36,5.75,R
,1570351,101,0,1844,-0.295,0.041,0.978,-4.35,6.46,6.19,R
,1570361,101,0,1843,-0.302,0.038,0.976,-5.32,7.28,6.80,R
,1570371,94,0,1844,-0.302,0.035,0.976,-5.45,7.42,6.63,R
,1570381,95,0,1841,-0.298,0.039,0.975,-6.50,6.50,6.71,R
,1570391,94,0,1850,-0.305,0.049,0.972,-7.77,5.91,6.91,R
,1570401,92,0,1844,-0.304,0.049,0.972,-7.95,5.33,7.12,R
,1570411,97,0,1843,-0.297,0.051,0.973,-8.19,4.89,7.41,R
,1570421,99,0,1849,-0.297,0.048,0.958,-8.90,3.97,7.05,R
,1570431,98,0,1850,-0.296,0.040,0.952,-9.98,3.77,6.80,R
,1570441,93,0,1849,-0.298,0.040,0.961,-10.45,3.57,7.29,R
,1570451,96,0,1847,-0.293,0.034,0.961,-11.57,4.17,8.10,R
,1570461,96,0,1843,-0.292,0.032,0.965,-13.02,4.37,8.56,R
,1570471,93,0,1846,-0.296,0.024,0.969,-13.00,4.90,9.17,R
,1570481,96,0,1845,-0.286,0.020,0.965,-13.13,5.51,8.93,R
,1570491,90,0,1846,-0.290,0.022,0.968,-13.31,5.22,9.37,R
,1570501,89,0,1843,-0.296,0.008,0.980,-14.03,4.61,9.31,R
,1570511,94,0,1852,-0.297,-0.012,0.996,-14.03,3.28,8.41,R
,1570521,101,0,1847,-0.233,-0.111,1.114,-9.86,-3.24,0.47,R
,1570531,94,0,1847,-0.253,-0.086,1.069,-12.36,-7.30,-3.49,R
,1570541,103,0,1847,-0.311,-0.048,1.044,-9.06,-7.71,-0.63,R
,1570551,102,0,1847,-0.281,-0.072,1.061,-6.26,-8.52,1.47,R
,1570561,99,0,1847,-0.244,-0.053,1.015,-6.12,-6.02,-0.13,R
,1570571,130,0,1850,-0.287,-0.029,1.051,-7.14,1.42,2.33,R
,1570581,141,0,1852,-0.285,-0.048,1.070,1.45,2.34,1.51,R
,1570591,125,0,1849,-0.290,-0.052,1.043,4.74,4.00,0.62,R
,1570601,123,0,1851,-0.323,-0.021,1.031,4.98,5.88,1.47,R
,1570611,126,0,1853,-0.337,-0.006,1.014,4.31,5.13,3.23,R
,1570621,126,0,1852,-0.328,-0.002,0.984,2.75,2.66,1.90,R
,1570631,129,0,1845,-0.313,0.006,0.992,-0.26,-1.27,-0.17,R
,1570641,123,0,1851,-0.319,0.004,0.988,-3.71,-4.08,-1.41,R
,1570651,112,0,1847,-0.337,0.015,0.973,-7.81,-5.19,-0.92,R
,1570661,87,0,1850,-0.320,0.004,0.988,-6.48,-6.17,-0.39,R
,1570671,51,0,1847,-0.312,0.008,0.975,-7.39,-5.76,-0.39,R
,1570681,74,0,1847,-0.321,0.019,0.965,-8.38,-3.95,0.65,R
,1570691,74,0,1846,-0.320,0.014,0.961,-9.05,-2.81,1.89,R
,1570701,71,0,1849,-0.300,0.012,0.952,-10.96,-1.18,3.00,R
,1570711,76,0,1844,-0.302,0.023,0.923,-14.61,0.76,3.52,R
,1570721,65,0,1850,-0.298,0.003,0.943,-17.10,3.83,4.67,R
,1570731,78,0,1849,-0.286,-0.013,0.973,-17.58,4.03,3.47,R
,1570741,66,0,1853,-0.289,-0.028,0.971,-17.43,4.31,1.84,R
,1570751,78,0,1847,-0.284,-0.049,1.008,-9.89,-0.11,-1.99,R
,1570761,42,0,1853,-0.298,-0.034,1.005,-8.38,-0.87,-1.33,R
,1570771,80,0,1850,-0.308,-0.026,1.013,-6.35,-0.03,1.67,R
,1570781,66,0,1851,-0.283,-0.020,1.003,-3.61,-1.13,1.67,R
,1570791,73,0,1853,-0.283,-0.022,1.017,-4.82,-1.56,1.46,R
,1570801,64,0,1852,-0.284,-0.010,0.972,-4.99,-1.85,0.77,R
,1570811,86,0,1850,-0.276,-0.028,1.002,-3.28,-3.95,-1.03,R
,1570821,180,0,1850,-0.266,-0.045,1.069,-0.96,1.31,-0.77,R
,1570831,53,0,1847,-0.283,-0.026,0.976,-2.13,-0.95,-0.04,R
,1570841,223,0,1850,-0.285,-0.028,0.969,-2.81,0.11,-0.11,R
,1570851,250,0,1850,-0.295,-0.022,0.972,-1.57,1.36,-0.05,R
,1570861,386,0,1845,-0.292,-0.021,0.974,0.75,2.98,-0.36,R
,1570871,432,0,1849,-0.288,-0.021,0.961,2.26,4.29,-1.15,R
,1570881,397,0,1846,-0.299,-0.009,0.961,4.22,5.88,-1.38,R
,1570891,456,0,1846,-0.313,0.004,0.971,5.12,7.71,-0.98,R
,1570901,486,0,1851,-0.328,0.014,0.978,5.27,8.61,-0.34,R
,1570911,533,0,1850,-0.320,0.010,0.974,3.88,7.40,0.09,R
,1570921,592,0,1845,-0.324,0.013,0.970,2.08,6.17,0.04,R
,1570931,635,0,1842,-0.324,0.010,0.965,2.90,4.37,-0.94,R
,1570941,686,0,1845,-0.317,-0.000,0.959,2.58,3.91,-1.26,R
,1570951,656,0,1850,-0.321,0.006,0.960,3.78,4.73,-0.56,R
,1570961,640,0,1849,-0.309,-0.005,0.968,5.15,6.44,-0.07,R
,1570971,667,0,1847,-0.302,-0.008,0.970,6.14,8.55,-0.16,R
,1570981,551,0,1850,-0.302,-0.024,0.974,7.09,9.72,-0.43,R
,1570991,576,0,1851,-0.291,-0.025,0.975,8.25,9.83,-0.82,R
,1571001,608,0,1853,-0.300,-0.041,0.977,9.45,9.05,-0.77,R
,1571011,610,0,1847,-0.316,-0.030,0.990,10.39,9.63,0.82,R
,1571021,631,0,1844,-0.319,-0.010,0.994,9.27,11.13,2.21,R
