wallclock_iso,t_ms,fsr1,fsr2,emg,ax,ay,az,gx,gy,gz,mode
,385741,135,0,1840,0.126,0.727,0.657,5.36,-9.01,4.59,R
,385751,138,0,1842,0.133,0.721,0.649,4.54,-6.63,5.05,R
,385761,142,0,1846,0.135,0.723,0.649,4.77,-3.40,6.27,R
,385771,134,0,1841,0.115,0.722,0.667,4.87,1.50,7.51,R
,385781,111,0,1840,0.110,0.717,0.678,3.56,2.00,8.47,R
,385791,143,0,1846,0.114,0.717,0.691,4.14,1.01,9.02,R
,385801,143,0,1845,0.118,0.720,0.677,4.60,0.69,9.96,R
,385811,142,0,1841,0.132,0.721,0.658,2.48,-1.82,9.98,R
,385821,141,0,1843,0.154,0.730,0.653,1.79,-2.41,10.04,R
,385831,141,0,1840,0.177,0.728,0.645,1.65,-1.34,9.90,R
,385841,131,0,1837,0.189,0.732,0.643,1.99,1.62,9.47,R
,385851,96,0,1835,0.161,0.741,0.641,0.83,6.09,9.18,R
,385861,139,0,1842,0.141,0.731,0.672,-1.29,6.34,9.60,R
,385871,137,0,1843,0.134,0.734,0.690,-1.66,5.59,9.73,R
,385881,140,0,1840,0.133,0.727,0.697,-0.53,5.11,9.90,R
,385891,138,0,1840,0.143,0.717,0.694,-0.47,3.62,9.72,R
,385901,120,0,1840,0.130,0.732,0.676,-1.26,4.20,9.98,R
,385911,139,0,1840,0.119,0.727,0.675,-3.58,4.85,10.71,R
,385921,137,0,1837,0.120,0.713,0.685,-6.00,3.19,10.18,R
,385931,137,0,1838,0.126,0.700,0.681,-5.63,2.50,9.81,R
,385941,143,0,1842,0.154,0.680,0.683,-4.96,2.93,9.23,R
,385951,134,0,1842,0.149,0.684,0.679,-3.45,5.53,9.12,R
,385961,138,0,1843,0.141,0.691,0.685,-4.12,8.67,9.25,R
,385971,139,0,1843,0.123,0.690,0.684,-5.51,10.63,9.60,R
,385981,141,0,1840,0.127,0.679,0.699,-7.87,8.98,9.17,R
,385991,140,0,1840,0.135,0.677,0.703,-8.79,6.49,8.82,R
,386001,135,0,1840,0.153,0.680,0.707,-8.77,6.40,8.97,R
,386011,138,0,1835,0.166,0.664,0.677,-11.54,-3.80,7.81,R
,386021,141,0,1841,0.138,0.682,0.712,-4.04,2.43,7.43,R
,386031,141,0,1844,0.199,0.708,0.709,-4.35,8.87,6.05,R
,386041,135,0,1842,0.187,0.683,0.750,-1.19,19.63,5.28,R
,386051,135,0,1849,0.176,0.685,0.723,-0.53,10.85,6.41,R
,386061,139,0,1840,0.155,0.693,0.729,-5.98,7.18,1.73,R
,386071,110,0,1841,0.148,0.710,0.736,-5.61,4.12,1.73,R
,386081,140,0,1840,0.163,0.713,0.750,-1.80,5.13,4.13,R
,386091,143,0,1841,0.176,0.715,0.746,-4.76,5.80,4.82,R
,386101,138,0,1841,0.170,0.700,0.753,-7.00,5.30,4.68,R
,386111,138,0,1841,0.158,0.692,0.744,-5.25,3.88,4.83,R
,386121,142,0,1845,0.153,0.677,0.747,-3.95,2.12,3.75,R
,386131,142,0,1846,0.152,0.667,0.747,-3.66,0.12,1.73,R
,386141,141,0,1844,0.158,0.673,0.736,-2.44,0.43,1.47,R
,386151,135,0,1846,0.163,0.667,0.723,-0.51,0.98,2.18,R
,386161,139,0,1844,0.163,0.679,0.710,-0.27,2.55,2.45,R
,386171,137,0,1841,0.179,0.676,0.702,-1.11,2.23,3.02,R
,386181,144,0,1846,0.180,0.677,0.696,-2.21,2.46,2.85,R
,386191,136,0,1840,0.189,0.680,0.683,-3.75,1.05,1.40,R
,386201,149,0,1839,0.185,0.683,0.683,-3.37,1.39,0.16,R
,386211,137,0,1840,0.192,0.676,0.680,-3.52,2.11,-1.70,R
,386221,137,0,1840,0.183,0.674,0.679,-2.84,3.36,-2.56,R
,386231,140,0,1840,0.175,0.676,0.684,-1.95,5.76,-2.98,R
,386241,140,0,1844,0.168,0.682,0.677,-1.98,6.26,-2.53,R
,386251,139,0,1846,0.154,0.689,0.675,-4.10,5.48,-2.43,R
,386261,135,0,1843,0.151,0.695,0.680,-6.13,6.05,-2.45,R
,386271,134,0,1853,0.150,0.700,0.687,-7.40,6.00,-1.95,R
,386281,141,0,1849,0.156,0.693,0.697,-8.73,5.74,-2.14,R
,386291,132,0,1843,0.156,0.690,0.705,-8.35,6.56,-1.73,R
,386301,135,0,1846,0.158,0.687,0.712,-6.88,8.44,-2.31,R
,386311,134,0,1846,0.149,0.679,0.706,-6.13,10.00,-2.39,R
,386321,140,0,1851,0.146,0.678,0.721,-5.66,11.53,-2.77,R
,386331,135,0,1850,0.142,0.691,0.721,-4.36,12.60,-2.80,R
,386341,144,0,1849,0.138,0.699,0.711,-5.14,12.81,-2.86,R
,386351,134,0,1846,0.128,0.693,0.708,-7.08,11.65,-3.76,R
,386361,138,0,1851,0.124,0.691,0.711,-9.08,9.11,-3.90,R
,386371,140,0,1846,0.116,0.698,0.717,-8.76,7.47,-3.73,R
,386381,140,0,1851,0.115,0.688,0.714,-9.16,8.05,-3.49,R
,386391,141,0,1851,0.115,0.679,0.707,-11.42,7.48,-3.79,R
,386401,137,0,1847,0.110,0.671,0.727,-11.63,8.14,-3.95,R
,386411,112,0,1845,0.113,0.669,0.732,-8.85,9.45,-4.33,R
,386421,133,0,1845,0.112,0.669,0.727,-5.95,12.06,-5.21,R
,386431,141,0,1846,0.093,0.676,0.712,-8.04,13.10,-5.43,R
,386441,136,0,1842,0.084,0.681,0.733,-9.19,11.95,-5.24,R
,386451,142,0,1846,0.092,0.681,0.724,-9.43,10.37,-4.88,R
,386461,141,0,1845,0.114,0.677,0.725,-9.72,10.37,-4.65,R
,386471,112,0,1841,0.115,0.682,0.714,-10.88,11.16,-4.65,R
,386481,144,0,1842,0.103,0.686,0.722,-11.68,12.96,-4.39,R
,386491,135,0,1844,0.104,0.682,0.730,-13.00,13.50,-4.39,R
,386501,137,0,1839,0.104,0.686,0.732,-13.63,12.38,-4.04,R
,386511,140,0,1839,0.107,0.677,0.735,-12.59,12.18,-4.25,R
,386521,138,0,1845,0.113,0.676,0.739,-11.43,12.84,-5.12,R
,386531,135,0,1840,0.097,0.690,0.726,-10.90,14.67,-5.58,R
,386541,134,0,1841,0.083,0.686,0.731,-11.43,16.63,-5.26,R
,386551,138,0,1840,0.075,0.691,0.747,-12.30,15.62,-4.30,R
,386561,133,0,1843,0.077,0.691,0.735,-12.88,14.40,-3.69,R
,386571,137,0,1840,0.089,0.683,0.734,-13.58,12.63,-3.62,R
,386581,141,0,1841,0.088,0.678,0.732,-14.42,12.18,-3.69,R
,386591,137,0,1840,0.086,0.678,0.741,-14.85,14.11,-3.26,R
,386601,135,0,1840,0.069,0.682,0.744,-15.55,16.00,-2.20,R
,386611,137,0,1840,0.061,0.680,0.764,-17.13,15.28,-1.03,R
,386621,139,0,1840,0.062,0.674,0.777,-17.69,14.00,-0.82,R
,386631,137,0,1843,0.070,0.656,0.772,-17.77,11.92,-0.69,R
,386641,141,0,1840,0.085,0.655,0.775,-16.70,12.14,-0.66,R
,386651,141,0,1840,0.081,0.652,0.779,-15.68,13.82,-0.63,R
,386661,95,0,1842,0.079,0.646,0.778,-15.95,15.42,-0.28,R
,386671,139,0,1840,0.076,0.649,0.780,-15.31,19.27,0.04,R
,386681,144,0,1840,0.075,0.637,0.789,-13.55,22.00,0.73,R
,386691,158,0,1843,0.071,0.631,0.795,-12.64,21.33,0.28,R
,386701,141,0,1841,0.073,0.634,0.784,-13.84,18.08,-1.38,R
,386711,140,0,1841,0.064,0.637,0.799,-14.27,15.88,-2.05,R
,386721,167,0,1841,0.063,0.635,0.785,-14.93,13.88,-2.08,R
,386731,135,0,1840,0.067,0.633,0.786,-15.78,12.95,-2.08,R
,386741,141,0,1845,0.075,0.622,0.803,-17.28,12.35,-2.43,R
,386751,139,0,1843,0.074,0.613,0.802,-15.87,13.94,-2.80,R
,386761,138,0,1842,0.073,0.606,0.813,-13.66,15.95,-2.78,R
,386771,144,0,1840,0.068,0.608,0.813,-12.29,17.53,-3.15,R
,386781,137,0,1842,0.056,0.603,0.811,-12.15,17.04,-3.58,R
,386791,135,0,1840,0.052,0.606,0.813,-10.67,16.73,-3.56,R
,386801,140,0,1842,0.048,0.606,0.804,-11.05,16.15,-4.53,R
,386811,139,0,1843,0.037,0.614,0.801,-13.68,14.82,-4.97,R
,386821,134,0,1841,0.026,0.616,0.799,-15.05,13.13,-4.95,R
,386831,139,0,1843,0.034,0.609,0.795,-15.89,10.60,-5.15,R
,386841,135,0,1839,0.041,0.605,0.795,-15.90,9.48,-5.30,R
,386851,133,0,1842,0.046,0.609,0.805,-14.84,11.16,-5.75,R
,386861,138,0,1841,0.034,0.607,0.804,-13.46,14.49,-6.27,R
,386871,134,0,1840,0.021,0.610,0.823,-12.32,16.26,-6.31,R
,386881,134,0,1840,0.007,0.611,0.828,-11.42,17.48,-6.20,R
,386891,134,0,1840,-0.010,0.615,0.839,-10.47,18.11,-5.27,R
,386901,138,0,1840,-0.022,0.610,0.831,-11.89,17.28,-4.24,R
,386911,134,0,1842,-0.021,0.605,0.828,-13.55,14.37,-3.04,R
,386921,140,0,1840,-0.010,0.601,0.821,-13.89,12.31,-3.06,R
,386931,137,0,1842,0.005,0.587,0.811,-13.49,10.12,-3.72,R
,386941,144,0,1837,0.022,0.572,0.805,-12.45,8.98,-5.30,R
,386951,143,0,1836,0.038,0.565,0.796,-11.46,8.75,-6.62,R
,386961,139,0,1838,0.038,0.570,0.791,-9.81,11.34,-7.44,R
,386971,142,0,1840,0.031,0.575,0.786,-8.67,14.92,-7.20,R
,386981,134,0,1839,0.022,0.586,0.788,-8.94,18.66,-6.37,R
,386991,149,0,1840,0.008,0.593,0.792,-11.98,19.04,-5.72,R
,387001,137,0,1842,-0.003,0.593,0.804,-15.22,17.82,-5.35,R
,387011,135,0,1842,-0.011,0.585,0.806,-18.51,15.19,-5.30,R
,387021,98,0,1845,-0.016,0.587,0.826,-20.21,13.83,-4.65,R
,387031,144,0,1841,-0.022,0.574,0.847,-20.09,14.17,-4.77,R
,387041,138,0,1842,-0.021,0.570,0.859,-18.36,13.98,-4.59,R
,387051,143,0,1844,-0.026,0.573,0.874,-15.89,14.53,-4.78,R
,387061,133,0,1845,-0.040,0.577,0.870,-14.79,15.07,-4.65,R
,387071,138,0,1841,-0.056,0.592,0.903,-12.84,14.87,-4.48,R
,387081,133,0,1842,-0.072,0.604,0.910,-11.42,14.72,-3.62,R
,387091,134,0,1845,-0.075,0.596,0.897,-11.14,13.66,-2.89,R
,387101,138,0,1840,-0.082,0.601,0.904,-12.36,10.85,-1.75,R
,387111,133,0,1840,-0.083,0.593,0.899,-12.07,9.43,-0.78,R
,387121,137,0,1840,-0.096,0.598,0.899,-10.73,8.55,0.89,R
,387131,138,0,1840,-0.092,0.588,0.899,-11.26,7.94,1.93,R
,387141,135,0,1840,-0.086,0.574,0.900,-11.61,4.53,2.65,R
,387151,134,0,1840,-0.081,0.571,0.895,-10.21,3.59,2.76,R
,387161,143,0,1840,-0.080,0.566,0.896,-9.08,3.16,3.43,R
,387171,139,0,1838,-0.073,0.566,0.888,-8.77,3.02,4.01,R
,387181,137,0,1840,-0.072,0.559,0.879,-7.68,3.02,3.95,R
,387191,139,0,1840,-0.062,0.547,0.871,-7.80,1.11,3.75,R
,387201,103,0,1840,-0.047,0.532,0.857,-7.11,0.31,3.58,R
,387211,142,0,1840,-0.039,0.527,0.855,-4.73,1.48,2.88,R
,387221,134,0,1840,-0.031,0.524,0.845,-3.87,2.75,2.44,R
,387231,138,0,1840,-0.031,0.524,0.835,-4.21,4.23,1.43,R
,387241,134,0,1838,-0.028,0.524,0.843,-4.30,5.24,1.17,R
,387251,106,0,1840,-0.033,0.523,0.838,-4.24,5.98,1.34,R
,387261,134,0,1841,-0.043,0.536,0.839,-6.51,6.60,1.44,R
,387271,142,0,1840,-0.047,0.534,0.855,-9.16,5.27,1.58,R
,387281,137,0,1835,-0.042,0.535,0.866,-10.53,2.58,1.23,R
,387291,139,0,1840,-0.033,0.522,0.869,-10.87,0.60,0.88,R
,387301,144,0,1840,-0.035,0.523,0.867,-10.21,0.23,-0.08,R
,387311,133,0,1836,-0.032,0.518,0.886,-9.71,1.28,-0.82,R
,387321,138,0,1840,-0.036,0.514,0.885,-7.66,2.41,-1.24,R
,387331,140,0,1836,-0.042,0.521,0.897,-4.58,2.55,-1.50,R
,387341,139,0,1839,-0.043,0.526,0.895,-2.99,3.34,-1.52,R
,387351,135,0,1839,-0.048,0.541,0.888,-3.05,4.73,-0.71,R
,387361,139,0,1837,-0.055,0.540,0.891,-5.87,3.37,0.12,R
,387371,134,0,1838,-0.055,0.539,0.896,-7.28,0.21,-0.14,R
,387381,135,0,1840,-0.042,0.526,0.891,-5.48,-2.11,-1.09,R
,387391,138,0,1840,-0.027,0.518,0.886,-2.64,-2.66,-1.93,R
,387401,138,0,1839,-0.022,0.516,0.870,0.05,-1.31,-3.30,R
,387411,135,0,1839,-0.033,0.529,0.860,-1.08,-0.14,-3.55,R
,387421,137,0,1837,-0.049,0.549,0.870,-1.42,0.34,-2.56,R
,387431,139,0,1840,-0.058,0.550,0.870,-0.68,1.24,-1.64,R
,387441,135,0,1837,-0.049,0.540,0.869,-1.90,0.49,-1.64,R
,387451,130,0,1836,-0.049,0.534,0.866,-2.35,-0.89,-2.05,R
,387461,146,0,1833,-0.049,0.537,0.861,-2.16,0.05,-1.47,R
,387471,142,0,1834,-0.047,0.527,0.852,-3.71,-1.76,-1.47,R
,387481,151,0,1834,-0.049,0.533,0.861,-4.56,-2.78,-0.97,R
,387491,144,0,1841,-0.039,0.528,0.862,-2.33,-2.17,-1.58,R
,387501,139,0,1839,-0.030,0.522,0.855,0.25,-0.82,-2.08,R
,387511,137,0,1842,-0.049,0.540,0.860,0.61,1.24,-2.07,R
,387521,102,0,1845,-0.071,0.547,0.866,-0.90,2.70,-1.26,R
,387531,155,0,1842,-0.077,0.550,0.877,-3.03,2.06,0.25,R
,387541,137,0,1845,-0.074,0.540,0.880,-3.81,-0.58,0.79,R
,387551,135,0,1842,-0.055,0.531,0.877,-2.65,-2.28,0.53,R
,387561,137,0,1844,-0.036,0.515,0.878,0.29,-1.94,-0.27,R
,387571,135,0,1842,-0.036,0.519,0.869,1.87,-0.44,-0.77,R
,387581,137,0,1841,-0.047,0.529,0.873,1.58,0.95,-0.45,R
,387591,138,0,1843,-0.060,0.531,0.868,-0.59,1.28,0.85,R
,387601,134,0,1840,-0.062,0.534,0.868,-2.73,-1.13,1.61,R
,387611,136,0,1839,-0.051,0.531,0.874,-4.12,-4.29,1.29,R
,387621,139,0,1838,-0.036,0.530,0.889,-4.07,-6.87,0.76,R
,387631,135,0,1835,-0.032,0.521,0.894,-3.55,-6.52,0.18,R
,387641,137,0,1838,-0.032,0.513,0.905,-4.27,-7.10,0.88,R
,387651,144,0,1837,-0.045,0.524,0.920,-2.39,-7.13,2.28,R
,387661,137,0,1840,-0.036,0.528,0.901,3.01,-5.01,3.08,R
,387671,135,0,1840,-0.032,0.538,0.897,2.14,-6.46,2.62,R
,387681,135,0,1839,-0.039,0.558,0.892,0.39,-9.65,1.83,R
,387691,134,0,1837,-0.030,0.555,0.894,-0.32,-12.58,1.92,R
,387701,138,0,1840,-0.026,0.557,0.909,-1.00,-14.35,2.94,R
,387711,139,0,1840,-0.032,0.554,0.907,-2.18,-14.73,3.11,R
,387721,138,0,1840,-0.039,0.547,0.917,-2.65,-15.28,4.01,R
,387731,145,0,1840,-0.043,0.547,0.935,-2.19,-16.53,4.68,R
,387741,145,0,1839,-0.050,0.544,0.948,-3.05,-18.92,4.53,R
,387751,141,0,1840,-0.072,0.546,0.924,-8.29,-29.74,5.22,R
,387761,138,0,1836,-0.059,0.543,0.941,-1.08,-24.79,6.42,R
,387771,141,0,1840,-0.024,0.542,0.943,-0.42,-26.26,6.42,R
,387781,139,0,1838,-0.008,0.545,0.956,-0.26,-28.15,5.80,R
,387791,146,0,1841,-0.006,0.560,0.957,1.64,-28.67,5.72,R
,387801,144,0,1844,-0.004,0.557,0.946,3.82,-27.31,5.69,R
,387811,141,0,1841,-0.013,0.553,0.950,2.63,-27.57,3.92,R
,387821,100,0,1842,0.002,0.519,0.910,1.06,-30.03,4.16,R
,387831,136,0,1840,-0.052,0.520,0.989,2.97,-32.18,1.02,R
,387841,135,0,1840,-0.032,0.506,0.934,3.29,-39.68,1.38,R
,387851,140,0,1840,-0.067,0.485,0.957,6.20,-43.62,1.60,R
,387861,141,0,1842,-0.059,0.462,0.939,7.09,-48.86,2.63,R
,387871,138,0,1840,-0.051,0.487,0.947,9.07,-47.56,3.00,R
,387881,137,0,1840,-0.041,0.498,0.956,14.29,-46.75,6.05,R
,387891,135,0,1839,-0.032,0.530,0.960,18.60,-46.23,8.04,R
,387901,139,0,1839,-0.013,0.571,0.982,20.11,-43.51,9.72,R
,387911,134,0,1839,-0.041,0.579,1.021,18.65,-44.17,11.58,R
,387921,129,0,1839,-0.040,0.597,1.022,13.15,-49.60,11.83,R
,387931,135,0,1841,-0.079,0.572,1.013,12.89,-56.08,15.00,R
,387941,140,0,1840,-0.069,0.563,1.030,11.55,-63.60,16.34,R
,387951,135,0,1840,-0.062,0.573,1.051,8.46,-72.41,17.17,R
,387961,138,0,1840,-0.014,0.628,1.065,8.25,-75.45,19.38,R
,387971,141,0,1840,-0.010,0.603,1.070,14.65,-74.84,22.05,R
,387981,137,0,1840,0.045,0.649,1.059,15.42,-77.18,17.98,R
,387991,137,0,1840,0.043,0.627,1.052,21.87,-74.63,15.34,R
,388001,131,0,1840,0.048,0.648,1.069,26.71,-77.15,14.80,R
,388011,144,0,1842,0.070,0.677,1.027,29.81,-78.05,14.50,R
,388021,141,0,1840,-0.021,0.616,1.060,29.85,-75.76,12.54,R
,388031,133,0,1843,-0.062,0.566,1.014,24.49,-82.15,8.47,R
,388041,133,0,1842,-0.066,0.585,1.033,30.92,-79.15,14.67,R
,388051,137,0,1841,-0.070,0.563,0.988,29.91,-76.20,18.56,R
,388061,142,0,1841,-0.076,0.550,0.977,26.43,-76.89,19.81,R
,388071,138,0,1840,-0.085,0.534,0.964,22.16,-74.17,18.68,R
,388081,135,0,1837,-0.116,0.473,0.937,19.04,-67.07,17.17,R
,388091,134,0,1838,-0.122,0.415,0.916,21.97,-58.34,15.72,R
,388101,142,0,1833,-0.120,0.380,0.844,29.09,-52.66,13.02,R
,388111,135,0,1837,-0.108,0.379,0.817,37.82,-47.48,10.85,R
,388121,138,0,1840,-0.058,0.401,0.757,42.65,-46.12,6.60,R
,388131,137,0,1842,-0.013,0.437,0.723,42.98,-44.99,0.36,R
,388141,133,0,1840,0.054,0.515,0.695,38.74,-46.86,-4.42,R
,388151,138,0,1839,0.111,0.556,0.665,32.61,-46.05,-8.31,R
,388161,139,0,1840,0.135,0.599,0.671,24.19,-44.57,-9.30,R
,388171,139,0,1845,0.151,0.620,0.619,12.02,-43.62,-9.20,R
,388181,134,0,1840,0.154,0.615,0.645,1.81,-42.11,-7.95,R
,388191,138,0,1842,0.166,0.638,0.646,-5.46,-45.92,-7.64,R
,388201,139,0,1840,0.193,0.621,0.633,-11.10,-44.81,-8.42,R
,388211,141,0,1840,0.219,0.593,0.623,-16.91,-45.56,-11.04,R
,388221,138,0,1840,0.243,0.579,0.603,-14.50,-44.09,-10.25,R
,388231,142,0,1840,0.275,0.616,0.620,-11.72,-42.40,-13.79,R
,388241,141,0,1844,0.277,0.600,0.608,-4.81,-33.40,-16.95,R
,388251,135,0,1843,0.282,0.651,0.598,-2.62,-28.52,-21.00,R
,388261,137,0,1840,0.241,0.631,0.594,3.84,-22.15,-19.70,R
,388271,133,0,1841,0.242,0.622,0.553,7.59,-20.08,-20.40,R
,388281,145,0,1840,0.246,0.644,0.545,8.26,-18.73,-22.62,R
,388291,137,0,1841,0.216,0.648,0.544,9.61,-17.69,-22.42,R
,388301,144,0,1840,0.231,0.661,0.541,8.46,-18.84,-22.51,R
,388311,138,0,1843,0.264,0.666,0.529,5.71,-20.52,-22.83,R
,388321,144,0,1840,0.270,0.647,0.520,2.00,-22.44,-23.91,R
,388331,148,0,1840,0.321,0.640,0.500,-1.40,-25.53,-25.90,R
,388341,135,0,1839,0.352,0.632,0.478,-4.55,-25.79,-27.90,R
,388351,142,0,1840,0.394,0.615,0.480,-6.12,-24.20,-30.20,R
,388361,145,0,1838,0.442,0.604,0.457,-2.35,-19.44,-31.58,R
,388371,144,0,1839,0.468,0.623,0.433,3.12,-12.84,-33.67,R
,388381,138,0,1839,0.504,0.656,0.415,6.37,-4.50,-36.42,R
,388391,131,0,1840,0.519,0.692,0.427,8.86,6.12,-37.72,R
,388401,140,0,1840,0.511,0.700,0.439,7.47,13.57,-38.89,R
,388411,139,0,1840,0.490,0.708,0.457,1.79,13.76,-39.01,R
,388421,134,0,1846,0.482,0.701,0.475,-7.10,9.60,-39.07,R
,388431,137,0,1840,0.474,0.672,0.496,-14.99,3.71,-38.83,R
,388441,144,0,1842,0.487,0.651,0.515,-20.74,-1.85,-39.41,R
,388451,139,0,1845,0.505,0.653,0.547,-22.85,-3.36,-40.69,R
,388461,140,0,1841,0.521,0.637,0.564,-21.55,-1.51,-42.51,R
,388471,135,0,1839,0.526,0.642,0.583,-17.55,5.42,-44.31,R
,388481,139,0,1841,0.498,0.660,0.632,-4.41,24.85,-43.58,R
,388491,133,0,1840,0.510,0.640,0.606,0.77,22.72,-42.17,R
,388501,139,0,1842,0.434,0.683,0.657,-0.44,17.92,-43.61,R
,388511,135,0,1846,0.403,0.712,0.645,-5.55,14.66,-44.05,R
,388521,138,0,1845,0.397,0.730,0.680,-10.74,9.92,-41.75,R
,388531,136,0,1846,0.375,0.738,0.689,-17.25,7.76,-38.46,R
,388541,139,0,1842,0.334,0.740,0.710,-24.51,5.54,-33.15,R
,388551,134,0,1843,0.337,0.734,0.746,-30.10,0.75,-25.91,R
,388561,137,0,1845,0.302,0.724,0.789,-33.71,-1.83,-14.77,R
,388571,137,0,1848,0.330,0.710,0.800,-35.43,-3.60,-14.05,R
,388581,135,0,1845,0.304,0.719,0.861,-36.26,-0.57,-10.40,R
,388591,138,0,1843,0.315,0.761,0.911,-37.23,-0.92,-8.04,R
,388601,139,0,1843,0.339,0.744,0.905,-36.82,-7.01,-7.88,R
,388611,140,0,1847,0.314,0.728,0.890,-33.40,-2.35,-0.71,R
,388621,135,0,1849,0.334,0.704,0.904,-23.77,-4.57,-1.20,R
,388631,135,0,1845,0.353,0.646,0.796,-22.33,-22.50,-3.81,R
,388641,137,0,1849,0.363,0.682,0.787,-24.64,-17.74,-7.11,R
,388651,138,0,1847,0.403,0.652,0.776,-24.44,-16.08,-11.53,R
,388661,135,0,1847,0.378,0.599,0.723,-19.13,-16.52,-12.16,R
,388671,138,0,1845,0.378,0.599,0.698,-16.82,-16.60,-12.85,R
,388681,133,0,1844,0.384,0.570,0.682,-12.16,-16.24,-13.87,R
,388691,141,0,1845,0.415,0.583,0.676,-10.22,-14.98,-16.77,R
,388701,139,0,1847,0.430,0.590,0.656,-6.06,-11.85,-18.40,R
,388711,140,0,1849,0.425,0.583,0.651,0.29,-7.36,-19.38,R
,388721,135,0,1850,0.411,0.591,0.641,5.76,-1.77,-19.73,R
,388731,135,0,1846,0.391,0.608,0.644,7.81,2.12,-19.35,R
,388741,136,0,1841,0.366,0.626,0.657,7.62,5.11,-17.96,R
,388751,137,0,1840,0.349,0.643,0.658,6.57,6.11,-15.98,R
,388761,141,0,1843,0.322,0.660,0.665,3.97,4.56,-14.14,R
,388771,138,0,1847,0.320,0.660,0.688,-0.21,1.68,-12.88,R
,388781,141,0,1844,0.310,0.660,0.699,-2.36,-2.03,-11.61,R
,388791,135,0,1840,0.307,0.649,0.718,-4.32,-4.69,-10.57,R
,388801,139,0,1845,0.315,0.644,0.735,-3.72,-6.72,-9.37,R
,388811,137,0,1842,0.317,0.643,0.745,-0.94,-5.94,-8.10,R
,388821,136,0,1846,0.314,0.640,0.739,1.29,-6.37,-7.64,R
,388831,135,0,1843,0.315,0.639,0.743,3.76,-7.54,-8.42,R
,388841,139,0,1842,0.303,0.631,0.732,5.27,-9.40,-9.18,R
,388851,138,0,1843,0.284,0.641,0.729,6.02,-12.09,-9.35,R
,388861,136,0,1843,0.272,0.643,0.718,5.99,-13.22,-8.07,R
,388871,137,0,1843,0.266,0.644,0.713,3.59,-15.97,-6.43,R
,388881,139,0,1846,0.259,0.644,0.711,1.67,-17.82,-4.88,R
,388891,139,0,1846,0.265,0.648,0.717,0.40,-18.79,-3.43,R
,388901,138,0,1843,0.266,0.639,0.715,-1.17,-19.89,-2.92,R
,388911,135,0,1845,0.274,0.632,0.712,-1.00,-19.08,-2.65,R
,388921,138,0,1841,0.279,0.638,0.728,0.39,-15.04,-2.97,R
,388931,139,0,1840,0.280,0.634,0.730,1.41,-10.98,-4.14,R
,388941,138,0,1843,0.273,0.651,0.733,2.84,-7.73,-5.52,R
,388951,134,0,1841,0.270,0.660,0.744,4.63,-4.03,-7.76,R
,388961,140,0,1842,0.263,0.684,0.737,5.19,-1.92,-10.04,R
,388971,137,0,1841,0.251,0.699,0.743,3.62,-1.28,-11.67,R
,388981,138,0,1845,0.236,0.719,0.752,2.14,-0.29,-12.53,R
,388991,137,0,1842,0.215,0.710,0.742,0.07,-0.44,-12.42,R
,389001,134,0,1841,0.178,0.714,0.751,-2.81,-0.58,-10.94,R
,389011,135,0,1840,0.160,0.718,0.746,-5.31,-1.34,-7.72,R
,389021,137,0,1844,0.160,0.691,0.736,-8.21,-3.34,-4.60,R
,389031,141,0,1841,0.163,0.674,0.717,-10.41,-6.00,-1.41,R
,389041,134,0,1842,0.174,0.662,0.709,-11.45,-7.16,2.15,R
,389051,135,0,1843,0.195,0.662,0.691,-11.39,-6.38,5.61,R
,389061,140,0,1847,0.218,0.662,0.676,-10.79,-3.94,8.09,R
,389071,138,0,1845,0.234,0.657,0.670,-10.42,-1.57,9.96,R
,389081,135,0,1840,0.239,0.654,0.654,-10.87,1.01,13.63,R
,389091,138,0,1843,0.250,0.675,0.675,-12.29,1.13,12.91,R
,389101,139,0,1840,0.243,0.694,0.691,-13.60,0.89,14.50,R
,389111,140,0,1842,0.243,0.706,0.708,-14.88,1.60,14.30,R
,389121,138,0,1842,0.240,0.697,0.714,-15.17,2.00,15.31,R
,389131,136,0,1840,0.233,0.689,0.733,-13.45,2.17,15.73,R
,389141,137,0,1845,0.225,0.693,0.735,-11.06,2.43,15.61,R
,389151,136,0,1840,0.219,0.692,0.754,-8.36,1.97,16.25,R
,389161,135,0,1843,0.219,0.693,0.751,-5.84,2.11,17.31,R
,389171,143,0,1840,0.216,0.696,0.750,-4.97,1.34,18.31,R
,389181,135,0,1840,0.212,0.692,0.754,-4.61,-0.26,20.05,R
,389191,138,0,1840,0.204,0.691,0.761,-6.32,-3.86,22.22,R
,389201,134,0,1840,0.208,0.672,0.757,-8.44,-7.83,23.66,R
,389211,141,0,1840,0.207,0.671,0.786,-6.59,-4.79,24.34,R
,389221,135,0,1840,0.207,0.607,0.693,-11.20,-29.11,23.17,R
,389231,135,0,1840,0.231,0.636,0.752,-13.84,-28.03,22.09,R
,389241,137,0,1842,0.285,0.623,0.714,-14.51,-30.38,17.00,R
,389251,140,0,1840,0.291,0.596,0.713,-9.31,-26.44,15.46,R
,389261,135,0,1841,0.306,0.593,0.695,0.17,-21.60,16.73,R
,389271,138,0,1840,0.316,0.615,0.701,2.23,-20.55,13.83,R
,389281,136,0,1840,0.322,0.622,0.703,2.63,-16.99,10.19,R
,389291,139,0,1840,0.312,0.630,0.698,5.94,-13.50,10.39,R
,389301,139,0,1840,0.304,0.644,0.730,8.11,-11.05,10.65,R
,389311,139,0,1840,0.294,0.656,0.736,6.71,-13.24,9.47,R
,389321,137,0,1840,0.282,0.672,0.747,4.87,-15.68,9.47,R
,389331,138,0,1839,0.279,0.683,0.748,3.24,-16.61,10.62,R
,389341,135,0,1840,0.266,0.696,0.775,2.26,-17.94,11.81,R
,389351,134,0,1840,0.265,0.709,0.794,-2.55,-21.28,11.89,R
,389361,135,0,1842,0.264,0.710,0.835,0.17,-19.40,13.70,R
,389371,141,0,1840,0.268,0.711,0.806,4.03,-21.10,15.64,R
,389381,133,0,1842,0.266,0.714,0.796,5.12,-22.00,16.76,R
,389391,137,0,1844,0.260,0.719,0.803,4.52,-22.49,19.00,R
,389401,139,0,1845,0.260,0.707,0.783,2.97,-24.17,21.81,R
,389411,137,0,1843,0.270,0.701,0.788,0.94,-26.11,24.05,R
,389421,135,0,1842,0.275,0.684,0.775,-1.10,-27.02,24.88,R
,389431,138,0,1844,0.294,0.657,0.748,-1.58,-27.28,25.38,R
,389441,134,0,1840,0.305,0.603,0.688,-9.60,-38.89,26.41,R
,389451,137,0,1845,0.340,0.593,0.716,-9.32,-35.21,23.58,R
,389461,135,0,1843,0.342,0.599,0.692,-6.74,-34.89,21.98,R
,389471,138,0,1845,0.353,0.565,0.653,-5.92,-35.19,20.39,R
,389481,139,0,1845,0.386,0.553,0.641,-9.08,-31.60,18.60,R
,389491,136,0,1841,0.377,0.536,0.632,-8.45,-27.42,18.91,R
,389501,138,0,1840,0.390,0.520,0.620,-7.69,-23.08,19.75,R
,389511,135,0,1840,0.413,0.514,0.619,-7.52,-17.60,21.08,R
,389521,140,0,1842,0.426,0.496,0.614,-5.22,-9.88,20.91,R
,389531,139,0,1841,0.437,0.491,0.608,-1.37,-3.05,21.37,R
,389541,138,0,1840,0.451,0.493,0.606,1.56,0.98,20.88,R
,389551,141,0,1841,0.460,0.501,0.606,3.27,6.27,18.85,R
,389561,138,0,1843,0.456,0.494,0.604,4.34,8.72,16.30,R
,389571,139,0,1843,0.452,0.497,0.595,6.49,12.67,13.84,R
,389581,142,0,1843,0.450,0.492,0.608,10.02,19.79,12.47,R
,389591,137,0,1840,0.452,0.499,0.606,15.35,27.40,11.43,R
,389601,141,0,1842,0.448,0.526,0.617,18.86,34.43,10.59,R
,389611,138,0,1840,0.445,0.511,0.610,20.49,38.06,9.23,R
,389621,134,0,1842,0.442,0.536,0.622,19.61,38.35,5.64,R
,389631,135,0,1849,0.453,0.561,0.605,15.42,33.77,2.99,R
,389641,137,0,1840,0.433,0.553,0.628,14.61,32.75,3.20,R
,389651,139,0,1841,0.428,0.549,0.639,14.58,27.63,0.25,R
,389661,138,0,1844,0.417,0.562,0.651,12.25,23.80,-1.11,R
,389671,141,0,1842,0.417,0.555,0.661,9.42,19.92,-4.43,R
,389681,136,0,1842,0.392,0.534,0.680,10.19,18.53,-4.68,R
,389691,135,0,1844,0.419,0.514,0.656,11.94,18.89,-5.06,R
,389701,134,0,1843,0.412,0.521,0.672,12.05,18.98,-5.85,R
,389711,136,0,1841,0.433,0.510,0.653,12.66,18.14,-5.06,R
,389721,138,0,1842,0.433,0.534,0.671,12.37,17.48,-3.46,R
,389731,138,0,1840,0.425,0.568,0.672,8.66,16.75,-2.62,R
,389741,142,0,1840,0.427,0.575,0.675,3.74,14.63,-3.12,R
,389751,139,0,1839,0.422,0.563,0.679,1.01,11.50,-2.08,R
,389761,135,0,1840,0.453,0.565,0.662,-2.50,7.79,-2.08,R
,389771,140,0,1840,0.476,0.549,0.641,-4.88,5.18,-2.48,R
,389781,134,0,1840,0.496,0.546,0.640,-5.80,3.31,-5.47,R
,389791,140,0,1840,0.487,0.511,0.667,-6.77,3.57,-10.92,R
,389801,140,0,1840,0.540,0.525,0.597,-7.13,4.37,-13.99,R
,389811,135,0,1841,0.514,0.531,0.620,-9.17,10.35,-14.60,R
,389821,137,0,1839,0.507,0.524,0.607,-10.10,13.72,-13.26,R
,389831,139,0,1840,0.494,0.543,0.591,-10.84,17.92,-8.63,R
,389841,138,0,1839,0.492,0.537,0.565,-12.44,21.48,-5.03,R
,389851,140,0,1840,0.521,0.531,0.550,-14.91,24.29,-2.57,R
,389861,143,0,1842,0.539,0.538,0.515,-19.74,22.18,-7.88,R
,389871,140,0,1840,0.564,0.494,0.508,-23.17,21.31,-9.66,R
,389881,138,0,1840,0.590,0.481,0.464,-23.90,23.91,-15.52,R
,389891,142,0,1838,0.597,0.508,0.456,-16.44,34.31,-21.18,R
,389901,135,0,1840,0.583,0.439,0.500,-7.63,54.75,-26.08,R
,389911,135,0,1840,0.558,0.408,0.362,-4.58,53.59,-27.66,R
,389921,138,0,1843,0.497,0.444,0.453,-5.19,58.49,-29.64,R
,389931,137,0,1843,0.527,0.487,0.333,-3.72,75.80,-32.27,R
,389941,137,0,1845,0.461,0.550,0.476,1.97,88.60,-34.57,R
,389951,140,0,1850,0.397,0.656,0.446,10.03,109.45,-30.69,R
,389961,138,0,1841,0.306,0.707,0.531,13.15,125.62,-29.00,R
,389971,137,0,1845,0.244,0.778,0.548,15.55,133.53,-25.01,R
,389981,143,0,1843,0.189,0.877,0.594,15.82,142.26,-20.49,R
,389991,140,0,1841,0.161,0.907,0.598,16.80,146.64,-19.24,R
,390001,136,0,1842,0.151,1.012,0.620,16.02,145.22,-19.95,R
,390011,133,0,1841,-0.092,1.352,1.301,30.05,161.22,-17.49,R
,390021,144,0,1845,0.032,1.082,0.744,23.03,148.78,-7.47,R
,390031,141,0,1843,-0.055,1.129,0.663,16.46,150.06,-8.31,R
,390041,130,0,1848,-0.119,1.152,0.750,5.85,146.73,-5.82,R
,390051,134,0,1849,-0.208,1.146,0.754,1.55,140.81,2.59,R
,390061,139,0,1845,-0.275,1.155,0.723,-2.41,132.53,13.14,R
,390071,138,0,1845,-0.300,1.109,0.742,-2.36,122.06,26.50,R
,390081,130,0,1843,-0.311,1.047,0.710,-4.74,110.73,37.98,R
,390091,139,0,1840,-0.286,0.979,0.663,-10.59,99.08,48.15,R
,390101,138,0,1841,-0.256,0.960,0.665,-17.77,89.36,56.27,R
,390111,161,0,1840,-0.237,0.908,0.676,-23.11,82.52,63.41,R
,390121,149,0,1841,-0.224,0.894,0.674,-29.23,79.66,68.21,R
,390131,141,0,1841,-0.210,0.863,0.693,-39.78,81.76,70.73,R
,390141,144,0,1840,-0.247,0.850,0.722,-53.74,88.55,72.13,R
,390151,137,0,1840,-0.293,0.793,0.781,-68.33,95.34,73.81,R
,390161,132,0,1840,-0.332,0.721,0.821,-83.75,95.69,77.31,R
,390171,128,0,1840,-0.414,0.630,0.986,-81.75,125.86,83.54,R
,390181,144,0,1837,-0.327,0.537,0.927,-78.94,130.93,95.35,R
,390191,142,0,1836,-0.260,0.497,0.905,-77.54,124.52,100.22,R
,390201,98,0,1840,-0.242,0.417,0.909,-71.71,120.24,98.39,R
,390211,151,0,1841,-0.247,0.456,1.081,-62.77,88.82,80.30,R
,390221,137,0,1841,-0.340,0.404,0.865,-38.53,90.12,100.67,R
,390231,134,0,1843,-0.266,0.395,0.936,-23.92,79.86,99.20,R
,390241,138,0,1842,-0.251,0.407,0.904,-30.39,71.14,93.73,R
,390251,135,0,1840,-0.271,0.423,0.917,-48.07,65.19,87.09,R
,390261,154,0,1845,-0.322,0.445,0.967,-58.26,65.47,83.26,R
,390271,144,0,1845,-0.323,0.394,0.954,-64.42,59.27,80.15,R
,390281,135,0,1840,-0.313,0.365,0.972,-67.55,45.05,75.08,R
,390291,142,0,1840,-0.229,0.343,0.961,-71.61,27.31,70.74,R
,390301,139,0,1845,-0.265,0.311,0.960,-57.05,13.82,66.82,R
,390311,138,0,1843,-0.242,0.315,0.987,-43.55,8.92,64.25,R
,390321,135,0,1844,-0.215,0.306,0.982,-33.58,12.50,60.51,R
,390331,140,0,1841,-0.194,0.312,0.955,-27.71,19.65,56.85,R
,390341,137,0,1841,-0.179,0.308,0.945,-23.06,27.62,54.57,R
,390351,129,0,1849,-0.178,0.307,0.944,-16.70,35.63,53.99,R
,390361,142,0,1845,-0.199,0.322,0.930,-12.42,42.26,54.24,R
,390371,136,0,1851,-0.190,0.327,0.922,-11.13,45.86,51.38,R
,390381,134,0,1850,-0.181,0.320,0.915,-14.06,44.40,45.29,R
,390391,129,0,1851,-0.186,0.311,0.909,-19.52,35.79,37.41,R
,390401,144,0,1843,-0.205,0.319,0.913,-23.08,27.86,31.58,R
,390411,139,0,1843,-0.220,0.308,0.919,-23.25,24.63,29.28,R
,390421,128,0,1847,-0.241,0.311,0.947,-23.22,24.60,28.93,R
,390431,133,0,1852,-0.253,0.304,0.958,-24.82,25.43,28.44,R
,390441,138,0,1849,-0.253,0.281,0.982,-23.81,26.01,29.58,R
,390451,141,0,1852,-0.236,0.258,0.989,-22.39,25.02,31.64,R
,390461,140,0,1851,-0.225,0.261,0.979,-20.96,24.14,33.23,R
,390471,101,0,1852,-0.222,0.264,0.990,-16.87,25.89,34.15,R
,390481,138,0,1847,-0.202,0.267,0.983,-11.60,27.40,31.32,R
,390491,139,0,1841,-0.183,0.280,0.987,-10.07,24.81,25.69,R
,390501,135,0,1840,-0.183,0.288,0.974,-8.32,23.02,19.87,R
,390511,126,0,1842,-0.185,0.294,0.959,-7.90,22.52,15.00,R
,390521,134,0,1840,-0.180,0.291,0.981,-10.84,21.10,12.67,R
,390531,152,0,1840,-0.187,0.295,0.969,-9.63,22.67,12.25,R
,390541,150,0,1840,-0.187,0.301,0.989,-9.06,24.08,14.68,R
,390551,149,0,1840,-0.188,0.317,0.997,-9.90,25.89,16.83,R
,390561,139,0,1841,-0.182,0.313,0.989,-10.44,27.18,18.21,R
,390571,134,0,1845,-0.181,0.325,0.994,-12.06,27.33,18.39,R
,390581,139,0,1850,-0.180,0.324,0.987,-10.19,27.30,18.85,R
,390591,141,0,1852,-0.174,0.329,0.984,-8.55,25.95,18.79,R
,390601,138,0,1850,-0.143,0.328,0.991,-7.83,23.65,16.67,R
,390611,138,0,1851,-0.139,0.339,1.006,-6.97,19.31,13.32,R
,390621,144,0,1856,-0.118,0.332,1.024,-2.87,14.32,8.80,R
,390631,133,0,1846,-0.112,0.340,1.029,3.39,9.31,2.36,R
,390641,137,0,1849,-0.119,0.366,1.048,6.52,5.10,-3.00,R
,390651,131,0,1843,-0.133,0.369,1.054,6.55,1.68,-6.10,R
,390661,135,0,1846,-0.149,0.381,1.064,8.80,0.99,-6.10,R
,390671,129,0,1842,-0.161,0.393,1.056,13.82,2.40,-4.02,R
,390681,135,0,1847,-0.132,0.405,1.057,17.90,-1.02,-2.07,R
,390691,163,0,1851,-0.164,0.416,1.066,21.42,-1.39,-0.68,R
,390701,154,0,1847,-0.152,0.432,1.042,23.56,-5.53,1.40,R
,390711,142,0,1840,-0.164,0.441,1.044,28.69,-3.10,3.57,R
,390721,146,0,1843,-0.112,0.416,1.072,24.84,-7.73,-0.69,R
,390731,148,0,1843,-0.046,0.323,1.083,25.16,-15.07,-7.81,R
,390741,147,0,1847,-0.154,0.429,1.029,24.58,-16.87,-10.25,R
,390751,156,0,1845,-0.150,0.444,1.042,19.91,-24.49,-7.24,R
,390761,151,0,1846,-0.138,0.426,0.985,19.74,-25.59,-0.04,R
,390771,147,0,1845,-0.124,0.434,0.970,21.41,-24.76,5.60,R
,390781,146,0,1847,-0.073,0.468,0.981,23.21,-23.99,6.57,R
,390791,168,0,1845,-0.091,0.489,0.962,20.90,-24.11,5.99,R
,390801,150,0,1841,-0.073,0.504,0.941,16.23,-19.28,4.44,R
,390811,159,0,1842,-0.067,0.499,0.964,10.86,-19.88,1.46,R
,390821,148,0,1842,-0.073,0.479,0.979,10.07,-20.43,0.67,R
,390831,151,0,1841,-0.083,0.486,0.923,6.22,-23.59,1.57,R
,390841,144,0,1841,-0.096,0.470,0.921,4.83,-23.18,3.43,R
,390851,146,0,1842,-0.104,0.466,0.919,5.58,-22.67,4.85,R
,390861,159,0,1844,-0.076,0.448,0.903,1.79,-26.98,3.41,R
,390871,157,0,1846,-0.058,0.456,0.884,-1.93,-29.59,3.14,R
,390881,153,0,1844,-0.039,0.452,0.850,-4.29,-30.67,3.23,R
,390891,151,0,1845,-0.036,0.461,0.840,-8.00,-29.01,4.47,R
,390901,159,0,1837,-0.016,0.463,0.812,-12.24,-25.40,5.78,R
,390911,144,0,1840,0.000,0.456,0.813,-17.77,-25.48,5.02,R
,390921,85,0,1840,-0.067,0.512,0.733,-27.66,-19.39,7.90,R
,390931,85,0,1843,-0.030,0.470,0.802,-27.64,-15.39,8.33,R
,390941,77,0,1840,-0.048,0.445,0.812,-32.74,-17.77,7.00,R
,390951,80,0,1840,-0.074,0.440,0.846,-34.50,-19.10,6.71,R
,390961,0,0,1840,-0.079,0.422,0.871,-31.92,-19.22,8.21,R
,390971,0,0,1840,-0.103,0.434,0.882,-28.50,-19.44,10.13,R
,390981,0,0,1840,-0.096,0.409,0.901,-22.85,-18.38,13.32,R
,390991,0,0,1841,-0.077,0.412,0.908,-20.03,-17.92,12.51,R
,391001,0,0,1844,-0.047,0.421,0.894,-16.84,-16.63,10.47,R
,391011,0,0,1843,-0.016,0.413,0.897,-10.97,-12.89,5.69,R
,391021,0,0,1842,-0.080,0.461,0.919,-13.69,-14.84,3.09,R
,391031,0,0,1841,-0.122,0.494,0.908,-21.58,-18.43,3.32,R
,391041,0,0,1843,-0.121,0.492,0.904,-30.88,-23.79,4.10,R
,391051,0,0,1843,-0.075,0.437,0.980,-37.29,-39.25,3.14,R
,391061,0,0,1840,-0.028,0.373,0.980,-35.68,-52.57,1.54,R
,391071,0,0,1840,-0.002,0.336,0.979,-29.31,-57.88,0.31,R
,391081,0,0,1841,0.009,0.341,0.973,-24.10,-56.32,0.54,R
,391091,73,0,1840,0.022,0.360,0.958,-19.87,-48.21,1.46,R
,391101,74,0,1845,0.049,0.357,0.937,-16.81,-39.36,2.12,R
,391111,84,0,1846,0.057,0.375,0.949,-14.73,-31.53,1.44,R
,391121,93,0,1843,0.062,0.386,0.950,-14.85,-28.24,0.04,R
,391131,83,0,1845,0.084,0.389,0.948,-18.30,-29.97,-0.83,R
,391141,128,0,1846,0.069,0.385,0.944,-21.05,-32.61,-0.54,R
,391151,133,0,1840,0.074,0.375,0.938,-24.56,-35.74,1.70,R
,391161,128,0,1840,0.100,0.349,0.966,-26.09,-38.09,2.76,R
,391171,135,0,1845,0.123,0.336,0.958,-23.72,-34.03,4.41,R
,391181,138,0,1843,0.114,0.342,0.959,-21.20,-26.86,4.76,R
,391191,131,0,1840,0.126,0.321,0.940,-17.77,-20.37,3.51,R
,391201,128,0,1840,0.136,0.309,0.941,-16.50,-17.25,0.02,R
,391211,127,0,1840,0.121,0.301,0.933,-12.03,-14.58,-4.40,R
,391221,80,0,1840,0.116,0.311,0.940,-8.76,-15.31,-6.28,R
,391231,73,0,1840,0.122,0.320,0.948,-4.71,-15.69,-7.91,R
,391241,76,0,1841,0.102,0.345,0.955,-2.10,-12.92,-6.54,R
,391251,80,0,1841,0.061,0.401,0.979,-7.63,-8.95,-1.61,R
,391261,79,0,1841,0.064,0.416,0.955,-11.55,-3.85,0.71,R
,391271,0,0,1840,0.065,0.368,0.955,-15.92,-7.44,1.32,R
,391281,0,0,1840,0.095,0.344,0.951,-14.15,-14.73,-1.64,R
,391291,0,0,1841,0.106,0.327,0.959,-7.69,-15.74,-4.04,R
,391301,0,0,1841,0.145,0.296,0.930,-2.13,-10.95,-7.29,R
,391311,0,0,1839,0.139,0.324,0.887,7.90,2.78,-9.23,R
,391321,0,0,1839,0.150,0.337,0.945,11.81,15.56,-7.78,R
,391331,0,0,1839,0.155,0.314,0.930,16.84,23.25,-7.35,R
,391341,0,0,1840,0.123,0.381,0.942,18.97,29.18,-3.52,R
,391351,0,0,1840,0.046,0.408,0.912,9.30,29.89,-0.34,R
,391361,0,0,1840,0.057,0.394,0.933,3.49,26.06,-0.53,R
,391371,0,0,1842,0.105,0.347,0.955,1.23,18.82,-3.62,R
,391381,0,0,1841,0.162,0.440,0.935,-5.89,11.88,-16.60,R
,391391,146,0,1845,0.115,0.341,0.944,11.35,22.35,-10.57,R
,391401,162,0,1846,0.138,0.371,0.935,18.28,33.65,-12.77,R
,391411,298,0,1846,0.091,0.339,0.920,27.67,51.60,-13.38,R
,391421,350,0,1846,0.070,0.398,1.052,37.97,53.33,-22.62,R
,391431,461,0,1843,0.038,0.329,0.916,51.58,70.46,-23.26,R
,391441,394,0,1842,-0.015,0.284,0.978,71.13,78.96,-18.83,R
,391451,409,0,1843,-0.020,0.385,0.933,77.47,82.40,-18.40,R
,391461,384,0,1841,-0.048,0.408,0.864,73.96,83.31,-17.32,R
,391471,357,0,1840,-0.039,0.433,0.856,69.07,84.53,-16.51,R
,391481,368,0,1840,-0.067,0.469,0.849,59.19,83.68,-16.19,R
,391491,390,0,1846,-0.128,0.496,0.848,46.75,76.93,-16.82,R
,391501,395,0,1843,-0.122,0.444,0.864,34.97,69.05,-18.11,R
,391511,545,0,1842,-0.229,0.478,0.911,21.41,56.72,-14.01,R
,391521,646,0,1841,-0.193,0.423,0.895,10.45,44.72,-4.54,R
,391531,659,0,1840,-0.131,0.406,0.886,-2.88,21.56,-6.36,R
,391541,691,0,1842,-0.099,0.406,0.917,-12.99,5.85,-8.89,R
,391551,741,0,1840,-0.037,0.395,0.931,-11.40,-0.23,-10.11,R
,391561,773,0,1840,-0.069,0.384,0.925,-3.57,3.68,-9.76,R
,391571,766,0,1839,-0.060,0.447,0.951,-10.45,11.77,-11.38,R
,391581,831,0,1837,-0.068,0.400,0.958,-7.90,20.14,-13.66,R
,391591,919,0,1838,-0.034,0.380,0.971,3.99,29.62,-13.47,R
,391601,947,0,1837,-0.091,0.427,0.944,18.98,41.71,-7.01,R
,391611,965,0,1836,-0.083,0.447,0.952,26.94,50.55,-0.02,R
,391621,935,0,1837,-0.084,0.465,0.962,22.40,52.47,1.84,R
,391631,953,0,1830,-0.133,0.516,0.988,8.90,46.55,-0.72,R
,391641,939,0,1840,-0.185,0.547,1.010,-7.11,33.63,0.88,R
,391651,973,0,1840,-0.198,0.506,1.017,-15.14,18.01,3.26,R
,391661,985,0,1838,-0.169,0.458,0.998,-12.26,1.40,2.60,R
,391671,1018,0,1842,-0.151,0.450,0.989,-4.38,-9.11,-1.04,R
,391681,1074,0,1842,-0.091,0.452,0.934,-2.62,-12.87,-8.68,R
,391691,1093,0,1840,-0.119,0.433,0.916,2.81,-8.86,-10.25,R
,391701,1141,0,1840,-0.134,0.436,0.894,4.26,-0.40,-11.26,R
,391711,1130,0,1842,-0.180,0.483,0.895,9.42,11.98,-10.92,R
,391721,1099,0,1840,-0.212,0.503,0.883,2.92,18.12,-8.62,R
,391731,1131,0,1841,-0.217,0.490,0.876,-5.58,17.04,-6.54,R
,391741,1119,0,1845,-0.230,0.502,0.885,-7.43,7.53,-7.56,R
,391751,1109,0,1845,-0.230,0.524,0.897,-10.64,-3.59,-5.40,R
,391761,1113,0,1841,-0.125,0.559,0.837,-19.26,-8.92,-5.03,R
,391771,1164,0,1842,-0.115,0.946,0.463,-91.69,-84.14,-6.24,R
,391781,1117,0,1840,-0.073,0.287,0.593,-7.71,-21.11,-4.80,R
,391791,1126,0,1841,-0.098,0.387,0.890,-2.70,-10.35,-15.12,R
,391801,1115,0,1845,-0.106,0.381,0.938,-3.25,-5.08,-17.44,R
,391811,1181,0,1840,-0.077,0.347,0.928,2.98,5.50,-18.02,R
,391821,1257,0,1840,-0.145,0.371,0.838,7.03,10.90,-17.23,R
,391831,1296,0,1840,-0.176,0.418,0.786,3.38,9.91,-14.77,R
,391841,1454,0,1840,-0.178,0.444,0.840,-2.30,2.89,-12.74,R
,391851,1501,0,1840,-0.160,0.448,0.854,2.34,-2.38,-12.82,R
,391861,1571,0,1839,-0.175,0.470,0.882,-0.01,-8.78,-15.44,R
,391871,1597,0,1836,-0.192,0.469,0.891,-9.08,-11.62,-14.82,R
,391881,1755,0,1842,-0.136,0.446,0.950,-7.77,-10.61,-11.81,R
,391891,1835,0,1843,-0.109,0.452,0.937,-0.26,-6.96,-7.91,R
,391901,1915,0,1840,-0.108,0.405,0.948,-1.39,-7.83,-10.19,R
,391911,2027,0,1841,-0.125,0.430,0.920,-5.28,-7.47,-10.20,R
,391921,2161,0,1843,-0.078,0.393,0.926,-3.69,-12.60,-15.78,R
,391931,2176,0,1840,-0.075,0.404,0.892,0.83,-17.42,-16.57,R
,391941,2259,0,1840,-0.089,0.427,0.832,0.52,-17.89,-17.47,R
,391951,2287,0,1838,-0.104,0.404,0.831,-5.26,-17.76,-20.20,R
,391961,2384,0,1840,-0.083,0.398,0.852,-3.78,-14.00,-20.48,R
,391971,2425,0,1839,-0.115,0.407,0.912,1.41,-6.15,-19.84,R
,391981,2469,0,1842,-0.173,0.426,0.891,4.25,4.75,-16.65,R
,391991,2513,0,1843,-0.178,0.448,0.925,9.55,10.53,-14.71,R
,392001,2509,0,1841,-0.187,0.444,0.967,7.29,7.62,-11.99,R
,392011,2544,0,1843,-0.203,0.488,0.935,6.83,0.12,-12.75,R
,392021,2593,0,1846,-0.176,0.469,0.961,7.30,-6.53,-13.67,R
,392031,2623,0,1842,-0.162,0.460,0.953,4.61,-12.15,-16.92,R
,392041,2633,0,1842,-0.133,0.431,0.968,4.92,-13.24,-17.26,R
,392051,2691,0,1841,-0.097,0.416,0.961,10.78,-9.92,-17.04,R
,392061,2654,0,1840,-0.101,0.426,0.918,13.44,-3.62,-16.54,R
,392071,2678,0,1841,-0.071,0.377,0.946,23.94,4.89,-16.83,R
,392081,2662,0,1842,-0.108,0.425,0.908,27.21,13.85,-18.57,R
,392091,2698,0,1840,-0.145,0.446,0.894,23.90,18.15,-16.94,R
,392101,2705,0,1842,-0.156,0.400,0.892,20.49,17.07,-16.56,R
,392111,2718,0,1840,-0.205,0.446,0.905,17.79,11.10,-16.59,R
,392121,2736,0,1845,-0.210,0.469,0.902,23.47,9.30,-15.52,R
,392131,2747,0,1840,-0.206,0.485,0.909,19.44,9.47,-14.49,R
,392141,2762,0,1841,-0.207,0.512,0.907,14.19,11.42,-12.46,R
,392151,2787,0,1841,-0.200,0.473,0.922,11.04,9.27,-12.65,R
,392161,2794,0,1842,-0.213,0.504,0.899,6.92,8.08,-9.07,R
,392171,2791,0,1842,-0.164,0.445,0.921,6.49,3.39,-8.53,R
,392181,2770,0,1841,-0.178,0.437,0.889,0.05,1.04,-8.08,R
,392191,2774,0,1840,-0.158,0.417,0.879,0.57,-2.14,-10.30,R
,392201,2787,0,1840,-0.140,0.408,0.900,7.79,-2.41,-11.18,R
,392211,2782,0,1841,-0.160,0.448,0.879,10.42,3.45,-10.40,R
,392221,2790,0,1840,-0.162,0.454,0.878,13.99,11.68,-8.22,R
,392231,2777,0,1839,-0.170,0.476,0.889,14.83,16.08,-6.86,R
,392241,2794,0,1843,-0.166,0.476,0.906,18.08,19.97,-3.99,R
,392251,2799,0,1842,-0.148,0.471,0.922,17.87,17.28,-1.85,R
,392261,2817,0,1841,-0.160,0.478,0.907,12.75,13.82,-1.96,R
,392271,2818,0,1844,-0.199,0.496,0.921,9.56,13.54,-2.16,R
,392281,2829,0,1842,-0.190,0.492,0.891,9.56,14.43,-1.93,R
,392291,2815,0,1844,-0.205,0.498,0.868,8.31,13.05,-4.65,R
,392301,2795,0,1842,-0.259,0.521,0.860,3.91,8.75,-4.22,R
,392311,2821,0,1847,-0.249,0.502,0.851,3.78,5.57,-2.54,R
,392321,2813,0,1841,-0.263,0.522,0.833,-1.45,4.18,-0.92,R
,392331,2797,0,1842,-0.218,0.472,0.865,-2.03,-0.14,-1.20,R
,392341,2813,0,1845,-0.225,0.494,0.876,-3.51,-2.09,1.22,R
,392351,2818,0,1849,-0.212,0.488,0.874,-5.06,-1.68,2.22,R
,392361,2832,0,1845,-0.226,0.496,0.847,-7.58,-0.63,5.20,R
,392371,2819,0,1840,-0.201,0.469,0.856,-9.87,-2.24,6.57,R
,392381,2817,0,1845,-0.190,0.454,0.839,-8.19,-1.95,4.73,R
,392391,2815,0,1844,-0.198,0.453,0.883,-6.33,-0.92,3.86,R
,392401,2816,0,1840,-0.206,0.462,0.864,-2.32,1.27,2.27,R
,392411,2807,0,1840,-0.218,0.471,0.874,-1.45,1.89,0.54,R
,392421,2811,0,1845,-0.218,0.465,0.883,1.35,-0.02,-0.60,R
,392431,2810,0,1840,-0.197,0.467,0.886,4.28,-0.96,-1.55,R
,392441,2791,0,1843,-0.195,0.480,0.899,5.24,0.37,-1.47,R
,392451,2787,0,1842,-0.227,0.520,0.878,6.16,3.56,-1.85,R
,392461,2784,0,1841,-0.214,0.477,0.884,4.40,3.77,-2.13,R
,392471,2781,0,1838,-0.198,0.463,0.891,8.77,5.21,-1.40,R
,392481,2785,0,1841,-0.209,0.484,0.891,7.09,7.24,0.76,R
,392491,2779,0,1840,-0.206,0.483,0.878,2.37,4.89,1.05,R
,392501,2771,0,1840,-0.218,0.492,0.858,-0.42,2.44,2.02,R
,392511,2777,0,1840,-0.217,0.488,0.861,-2.85,-1.82,2.13,R
,392521,2746,0,1840,-0.205,0.491,0.860,-4.64,-4.76,0.30,R
,392531,2768,0,1840,-0.216,0.500,0.872,-6.97,-5.05,-0.60,R
,392541,2767,0,1839,-0.196,0.486,0.872,-5.97,-5.79,-1.20,R
,392551,2772,0,1834,-0.189,0.493,0.881,-4.53,-3.65,-0.25,R
,392561,2781,0,1839,-0.173,0.487,0.907,-1.95,-1.85,-0.80,R
,392571,2775,0,1838,-0.166,0.469,0.891,0.71,1.85,0.67,R
,392581,2734,0,1834,-0.165,0.469,0.898,-0.68,4.29,-0.39,R
,392591,2775,0,1839,-0.194,0.465,0.893,-0.85,4.38,-0.25,R
,392601,2768,0,1835,-0.221,0.493,0.866,-1.64,4.95,0.91,R
,392611,2766,0,1839,-0.211,0.463,0.866,-0.36,1.48,2.04,R
,392621,2774,0,1836,-0.197,0.459,0.860,-3.31,-3.01,2.94,R
,392631,2758,0,1833,-0.204,0.471,0.875,-4.65,-3.86,3.23,R
,392641,2787,0,1836,-0.188,0.468,0.876,-3.43,-3.07,2.60,R
,392651,2800,0,1835,-0.205,0.479,0.872,-3.63,-1.21,2.24,R
,392661,2807,0,1834,-0.223,0.485,0.874,-2.53,1.77,2.16,R
,392671,2807,0,1835,-0.226,0.470,0.885,0.55,3.42,1.35,R
,392681,2813,0,1839,-0.227,0.488,0.879,3.32,4.38,0.83,R
,392691,2813,0,1840,-0.221,0.496,0.894,4.68,4.75,0.28,R
,392701,2817,0,1841,-0.220,0.499,0.881,5.23,5.21,-0.91,R
,392711,2819,0,1839,-0.224,0.467,0.879,3.33,3.48,-0.92,R
,392721,2826,0,1839,-0.203,0.453,0.863,5.38,2.53,0.24,R
,392731,2821,0,1840,-0.191,0.429,0.858,4.77,-0.60,-0.89,R
,392741,2811,0,1840,-0.207,0.455,0.828,3.49,-2.89,-1.03,R
,392751,2798,0,1840,-0.204,0.448,0.823,1.35,-4.52,-0.02,R
,392761,2797,0,1840,-0.208,0.466,0.816,-1.42,-6.23,-0.86,R
,392771,2802,0,1838,-0.214,0.485,0.855,1.07,-5.25,1.09,R
,392781,2806,0,1842,-0.206,0.508,0.889,-0.91,-6.37,1.03,R
,392791,2832,0,1840,-0.217,0.509,0.924,-3.86,-6.34,-0.16,R
,392801,2800,0,1840,-0.213,0.494,0.949,-3.16,-5.33,-0.62,R
,392811,2788,0,1843,-0.177,0.463,0.945,0.23,-2.99,-1.70,R
,392821,2795,0,1837,-0.176,0.478,0.940,2.94,2.58,-0.20,R
,392831,2774,0,1837,-0.166,0.489,0.889,4.58,6.84,-1.07,R
,392841,2772,0,1838,-0.179,0.473,0.868,3.18,8.08,-2.02,R
,392851,2777,0,1840,-0.197,0.465,0.852,2.02,5.83,-2.39,R
,392861,2745,0,1838,-0.199,0.452,0.823,0.60,1.48,-2.48,R
,392871,2775,0,1840,-0.205,0.443,0.833,1.32,-2.35,-3.27,R
,392881,2782,0,1842,-0.193,0.439,0.838,6.00,-2.72,-4.37,R
,392891,2771,0,1840,-0.193,0.456,0.852,7.91,0.24,-3.66,R
,392901,2781,0,1837,-0.203,0.480,0.876,7.42,3.42,-1.84,R
,392911,2785,0,1842,-0.221,0.510,0.885,4.17,3.13,-0.54,R
,392921,2783,0,1840,-0.218,0.524,0.909,5.10,2.29,1.18,R
,392931,2781,0,1840,-0.224,0.533,0.916,0.49,-0.46,0.05,R
,392941,2776,0,1841,-0.208,0.512,0.908,0.14,-0.40,-1.33,R
,392951,2777,0,1842,-0.223,0.492,0.903,-1.32,-0.75,-1.26,R
,392961,2774,0,1840,-0.196,0.483,0.874,3.36,1.47,-0.43,R
,392971,2770,0,1840,-0.198,0.486,0.851,3.38,2.70,-0.33,R
,392981,2761,0,1841,-0.199,0.486,0.829,1.67,2.90,-0.77,R
,392991,2762,0,1839,-0.222,0.491,0.820,1.39,2.24,0.65,R
,393001,2768,0,1841,-0.219,0.491,0.817,-0.29,-1.97,1.09,R
,393011,2770,0,1839,-0.225,0.492,0.832,-2.96,-6.35,0.94,R
,393021,2771,0,1837,-0.222,0.511,0.851,-3.34,-7.95,2.13,R
,393031,2769,0,1839,-0.201,0.510,0.884,-2.12,-5.40,2.01,R
,393041,2768,0,1835,-0.204,0.519,0.888,-2.22,-0.81,1.32,R
,393051,2777,0,1841,-0.206,0.513,0.888,-0.53,1.97,1.15,R
,393061,2790,0,1845,-0.196,0.499,0.893,2.58,4.75,2.30,R
,393071,2768,0,1841,-0.196,0.497,0.876,2.87,5.28,1.69,R
,393081,2767,0,1840,-0.226,0.495,0.831,-0.93,2.32,1.55,R
,393091,2768,0,1838,-0.211,0.466,0.809,-1.17,-3.66,0.18,R
,393101,2742,0,1840,-0.220,0.472,0.817,-1.02,-6.67,0.10,R
,393111,2768,0,1840,-0.198,0.477,0.838,0.51,-6.49,0.97,R
,393121,2756,0,1838,-0.195,0.492,0.865,1.47,-3.11,1.35,R
,393131,2751,0,1840,-0.167,0.478,0.906,2.29,-1.21,-0.75,R
,393141,2747,0,1840,-0.198,0.493,0.917,2.10,2.03,-0.28,R
,393151,2746,0,1840,-0.203,0.508,0.915,2.87,5.05,1.80,R
,393161,2749,0,1839,-0.202,0.510,0.898,1.21,4.37,0.05,R
,393171,2766,0,1840,-0.230,0.494,0.871,-0.88,1.51,-0.56,R
,393181,2735,0,1845,-0.223,0.474,0.856,-1.68,-2.67,-0.68,R
,393191,2711,0,1842,-0.213,0.460,0.883,-1.23,-5.88,0.54,R
,393201,2704,0,1842,-0.202,0.509,0.862,0.25,-2.46,3.58,R
,393211,2714,0,1840,-0.162,0.490,0.871,0.55,-1.01,-0.14,R
,393221,2726,0,1840,-0.195,0.480,0.892,-0.90,0.90,-2.34,R
,393231,2736,0,1844,-0.219,0.497,0.876,3.79,1.94,-2.66,R
,393241,2734,0,1840,-0.194,0.480,0.866,7.58,4.79,0.01,R
,393251,2736,0,1843,-0.196,0.498,0.852,5.99,4.85,-1.17,R
,393261,2739,0,1842,-0.203,0.500,0.861,3.99,4.35,-0.89,R
,393271,2740,0,1840,-0.235,0.516,0.848,4.10,2.44,-0.54,R
,393281,2739,0,1842,-0.226,0.506,0.840,2.63,-0.37,-0.71,R
,393291,2731,0,1844,-0.233,0.495,0.839,-0.51,-3.54,-0.85,R
,393301,2691,0,1846,-0.238,0.510,0.841,-1.25,-3.40,-0.07,R
,393311,2687,0,1843,-0.222,0.502,0.870,-1.84,-1.16,1.78,R
,393321,2678,0,1841,-0.209,0.515,0.894,-3.45,-0.82,1.17,R
,393331,2718,0,1842,-0.208,0.500,0.902,-2.82,-0.02,1.09,R
,393341,2647,0,1840,-0.221,0.503,0.885,-4.13,0.11,0.62,R
,393351,2629,0,1840,-0.211,0.489,0.860,-3.48,-1.53,0.38,R
,393361,2622,0,1843,-0.209,0.468,0.855,-2.38,-2.49,0.54,R
,393371,2618,0,1841,-0.200,0.503,0.792,0.29,0.12,1.70,R
,393381,2614,0,1841,-0.183,0.467,0.832,-2.47,-0.81,3.05,R
,393391,2619,0,1838,-0.223,0.509,0.832,-3.32,2.58,0.36,R
,393401,2608,0,1840,-0.227,0.490,0.858,-5.69,2.64,4.65,R
,393411,2611,0,1840,-0.214,0.503,0.868,-7.19,-0.92,5.32,R
,393421,2608,0,1840,-0.210,0.523,0.877,-8.62,-4.76,5.46,R
,393431,2608,0,1839,-0.177,0.519,0.887,-8.33,-5.40,4.91,R
,393441,2610,0,1838,-0.194,0.523,0.898,-14.09,-4.02,4.77,R
,393451,2615,0,1836,-0.165,0.487,0.898,-11.97,-2.92,3.75,R
,393461,2615,0,1838,-0.192,0.473,0.892,-11.06,-2.70,4.63,R
,393471,2613,0,1839,-0.190,0.476,0.861,-7.14,-0.26,5.03,R
,393481,2615,0,1840,-0.191,0.461,0.860,-7.20,1.11,4.19,R
,393491,2611,0,1831,-0.204,0.460,0.849,-9.05,-0.15,2.41,R
,393501,2620,0,1836,-0.206,0.444,0.854,-8.27,-3.54,1.40,R
,393511,2622,0,1837,-0.196,0.454,0.875,-5.19,-5.47,2.24,R
,393521,2630,0,1837,-0.177,0.445,0.870,-2.33,-4.12,2.50,R
,393531,2635,0,1833,-0.149,0.438,0.884,-0.71,-1.80,0.99,R
,393541,2637,0,1835,-0.142,0.434,0.892,-1.51,0.24,-1.04,R
,393551,2637,0,1838,-0.175,0.474,0.906,-1.64,1.47,-2.07,R
,393561,2634,0,1837,-0.142,0.469,0.897,-3.00,1.47,-3.12,R
,393571,2633,0,1834,-0.160,0.494,0.906,2.45,3.56,-5.26,R
,393581,2636,0,1835,-0.166,0.444,0.884,4.14,1.02,-5.37,R
,393591,2639,0,1831,-0.172,0.452,0.885,4.26,0.46,-6.33,R
,393601,2634,0,1840,-0.169,0.438,0.883,6.03,3.19,-6.34,R
,393611,2630,0,1835,-0.174,0.437,0.879,10.08,6.92,-6.13,R
,393621,2647,0,1836,-0.178,0.444,0.897,11.62,9.31,-5.37,R
,393631,2655,0,1839,-0.198,0.474,0.892,12.08,11.22,-5.03,R
,393641,2663,0,1840,-0.198,0.473,0.902,13.24,10.73,-4.13,R
,393651,2681,0,1839,-0.210,0.497,0.893,13.65,10.73,-3.95,R
,393661,2686,0,1841,-0.210,0.492,0.891,11.93,10.23,-5.11,R
,393671,2699,0,1837,-0.229,0.502,0.872,7.96,7.57,-7.11,R
,393681,2704,0,1843,-0.241,0.498,0.844,9.01,6.34,-7.87,R
,393691,2674,0,1841,-0.235,0.489,0.820,8.63,3.76,-8.56,R
,393701,2715,0,1840,-0.223,0.475,0.814,8.60,2.12,-8.51,R
,393711,2705,0,1840,-0.220,0.505,0.809,10.57,3.39,-7.23,R
,393721,2736,0,1838,-0.216,0.498,0.835,8.80,4.81,-6.83,R
,393731,2735,0,1835,-0.226,0.507,0.860,6.87,5.45,-7.06,R
,393741,2727,0,1838,-0.224,0.513,0.887,10.23,8.79,-5.50,R
,393751,2783,0,1838,-0.231,0.521,0.888,9.49,10.21,-4.42,R
,393761,2743,0,1839,-0.261,0.531,0.872,6.77,9.72,-3.93,R
,393771,2745,0,1840,-0.266,0.526,0.867,5.21,7.21,-2.16,R
,393781,2745,0,1840,-0.269,0.527,0.841,1.76,3.13,-0.49,R
,393791,2748,0,1839,-0.260,0.521,0.815,-2.16,-1.24,-1.46,R
,393801,2723,0,1838,-0.272,0.519,0.813,-5.98,-6.58,-2.66,R
,393811,2727,0,1838,-0.246,0.489,0.814,-5.48,-8.23,-0.62,R
,393821,2721,0,1838,-0.218,0.500,0.842,-4.97,-7.80,0.12,R
,393831,2726,0,1840,-0.210,0.522,0.844,-2.68,-5.11,0.31,R
,393841,2720,0,1840,-0.202,0.506,0.844,-1.86,-2.14,-0.33,R
,393851,2719,0,1839,-0.212,0.503,0.863,-1.14,-0.81,-0.89,R
,393861,2734,0,1840,-0.210,0.505,0.868,2.94,1.13,0.36,R
,393871,2737,0,1840,-0.208,0.518,0.865,2.81,0.43,0.41,R
,393881,2737,0,1837,-0.214,0.522,0.853,-0.99,-0.99,-0.51,R
,393891,2748,0,1840,-0.227,0.517,0.845,-3.52,-3.74,-0.46,R
,393901,2741,0,1843,-0.223,0.501,0.844,-3.10,-5.39,0.01,R
,393911,2747,0,1841,-0.208,0.507,0.842,-1.28,-4.76,0.16,R
,393921,2752,0,1841,-0.209,0.511,0.848,-2.53,-3.30,0.57,R
,393931,2751,0,1840,-0.200,0.503,0.861,-2.24,-0.78,0.70,R
,393941,2767,0,1843,-0.210,0.501,0.883,-2.36,0.98,1.64,R
,393951,2775,0,1845,-0.208,0.506,0.889,-3.28,0.75,2.67,R
,393961,2783,0,1844,-0.202,0.500,0.886,-3.84,-0.44,2.63,R
,393971,2775,0,1842,-0.194,0.499,0.879,-2.53,0.73,2.19,R
,393981,2758,0,1841,-0.194,0.498,0.869,-2.88,-0.12,1.32,R
,393991,2768,0,1843,-0.203,0.490,0.856,-1.46,0.61,0.28,R
,394001,2759,0,1840,-0.209,0.489,0.866,0.23,1.02,0.28,R
,394011,2737,0,1841,-0.220,0.465,0.869,-1.31,-1.11,-0.34,R
,394021,2761,0,1841,-0.234,0.479,0.857,-1.49,-2.15,-0.53,R
,394031,2763,0,1845,-0.226,0.475,0.863,-0.68,-4.23,-1.37,R
,394041,2781,0,1844,-0.205,0.445,0.875,0.61,-4.66,-3.04,R
,394051,2775,0,1846,-0.225,0.482,0.862,2.16,-2.44,-2.42,R
,394061,2763,0,1843,-0.218,0.459,0.866,5.82,2.72,-3.50,R
,394071,2758,0,1847,-0.226,0.497,0.853,7.49,4.96,-3.70,R
,394081,2750,0,1846,-0.229,0.488,0.852,6.52,4.14,-3.07,R
,394091,2737,0,1842,-0.227,0.500,0.838,4.19,-0.02,-4.31,R
,394101,2736,0,1838,-0.233,0.507,0.822,2.97,-1.11,-4.19,R
,394111,2731,0,1840,-0.229,0.500,0.846,1.39,-1.30,-3.95,R
,394121,2733,0,1840,-0.206,0.483,0.870,1.78,-1.07,-4.69,R
,394131,2736,0,1843,-0.221,0.494,0.875,2.49,0.15,-5.50,R
,394141,2720,0,1840,-0.217,0.488,0.874,5.00,0.90,-5.52,R
,394151,2704,0,1837,-0.207,0.473,0.857,6.43,-0.50,-6.02,R
,394161,2699,0,1838,-0.210,0.478,0.844,8.52,-2.21,-5.93,R
,394171,2683,0,1840,-0.218,0.494,0.829,10.26,-2.76,-5.61,R
,394181,2672,0,1840,-0.215,0.503,0.829,10.90,-2.41,-4.48,R
,394191,2688,0,1840,-0.209,0.519,0.854,10.77,-0.29,-3.44,R
,394201,2674,0,1840,-0.215,0.545,0.849,11.33,3.85,-3.61,R
,394211,2686,0,1837,-0.241,0.582,0.868,8.39,6.50,-3.55,R
,394221,2637,0,1838,-0.238,0.565,0.879,6.28,5.65,-4.94,R
,394231,2686,0,1835,-0.244,0.556,0.861,6.17,4.87,-5.06,R
,394241,2688,0,1840,-0.246,0.558,0.846,4.69,3.74,-4.22,R
,394251,2688,0,1839,-0.227,0.548,0.822,2.05,1.45,-4.11,R
,394261,2694,0,1839,-0.240,0.546,0.813,-1.23,0.79,-2.19,R
,394271,2688,0,1840,-0.228,0.525,0.810,-1.19,0.58,-0.86,R
,394281,2709,0,1840,-0.240,0.519,0.815,-3.42,-1.22,-0.25,R
,394291,2656,0,1838,-0.237,0.492,0.802,-2.42,-3.76,0.53,R
,394301,2642,0,1838,-0.241,0.500,0.807,-0.71,-4.17,2.97,R
,394311,2641,0,1839,-0.233,0.509,0.821,-4.35,-4.84,2.68,R
,394321,2633,0,1835,-0.241,0.520,0.844,-6.16,-4.99,1.99,R
,394331,2624,0,1831,-0.225,0.509,0.885,-4.68,-3.50,1.06,R
,394341,2630,0,1839,-0.224,0.515,0.909,-2.82,-1.19,1.22,R
,394351,2619,0,1834,-0.208,0.519,0.932,0.13,1.80,0.82,R
,394361,2608,0,1836,-0.211,0.511,0.901,0.74,3.60,-0.05,R
,394371,2592,0,1833,-0.229,0.506,0.879,-0.42,1.54,-0.68,R
,394381,2590,0,1839,-0.235,0.487,0.840,-2.00,-3.16,-0.51,R
,394391,2587,0,1838,-0.207,0.473,0.815,0.23,-4.28,0.62,R
,394401,2559,0,1839,-0.226,0.486,0.788,-1.45,-3.31,-1.18,R
,394411,2559,0,1831,-0.225,0.458,0.785,-2.84,-5.57,-1.38,R
,394421,2559,0,1835,-0.220,0.461,0.800,-1.06,-4.67,-0.68,R
,394431,2559,0,1831,-0.228,0.482,0.832,1.64,-4.44,-0.11,R
,394441,2559,0,1840,-0.206,0.487,0.870,4.17,-4.82,-1.59,R
,394451,2559,0,1837,-0.236,0.517,0.888,1.61,-4.00,-1.23,R
,394461,2582,0,1837,-0.219,0.529,0.906,3.23,-0.55,-0.72,R
,394471,2559,0,1839,-0.202,0.530,0.905,4.48,2.12,-1.26,R
,394481,2588,0,1837,-0.216,0.543,0.897,3.06,3.74,-0.82,R
,394491,2602,0,1840,-0.213,0.531,0.876,2.23,4.17,-2.45,R
,394501,2585,0,1839,-0.231,0.526,0.857,0.36,2.55,-3.76,R
,394511,2618,0,1840,-0.219,0.512,0.841,0.26,-1.10,-2.51,R
,394521,2625,0,1837,-0.209,0.491,0.821,0.26,-2.89,-2.10,R
,394531,2625,0,1835,-0.209,0.484,0.816,0.05,-4.12,-3.21,R
,394541,2624,0,1835,-0.207,0.484,0.830,1.59,-3.01,-3.18,R
,394551,2625,0,1837,-0.216,0.482,0.832,1.44,-2.12,-2.82,R
,394561,2592,0,1835,-0.214,0.502,0.840,3.03,-1.56,-2.27,R
,394571,2589,0,1834,-0.209,0.521,0.859,4.23,0.61,-1.73,R
,394581,2592,0,1830,-0.196,0.531,0.897,3.71,1.77,-2.69,R
,394591,2594,0,1834,-0.200,0.543,0.901,4.51,3.04,-4.57,R
,394601,2590,0,1837,-0.208,0.533,0.915,6.92,5.50,-3.27,R
,394611,2597,0,1841,-0.184,0.507,0.892,8.28,7.13,-2.39,R
,394621,2599,0,1829,-0.189,0.515,0.862,9.03,6.66,-3.53,R
,394631,2588,0,1830,-0.197,0.492,0.833,10.48,7.94,-4.27,R
,394641,2589,0,1840,-0.180,0.464,0.823,10.63,8.75,-4.66,R
,394651,2559,0,1836,-0.206,0.461,0.825,13.29,10.81,-6.42,R
,394661,2559,0,1838,-0.232,0.488,0.813,14.34,13.36,-4.43,R
,394671,2555,0,1837,-0.239,0.514,0.824,13.74,13.51,-3.84,R
,394681,2549,0,1831,-0.228,0.532,0.833,16.16,13.95,-4.85,R
,394691,2549,0,1833,-0.262,0.548,0.855,15.16,13.66,-5.90,R
,394701,2559,0,1829,-0.257,0.551,0.845,14.63,13.37,-6.63,R
,394711,2554,0,1835,-0.262,0.564,0.832,12.20,11.80,-8.54,R
,394721,2543,0,1835,-0.272,0.547,0.804,9.56,9.01,-8.88,R
,394731,2544,0,1834,-0.278,0.547,0.774,7.16,5.57,-7.95,R
,394741,2526,0,1834,-0.259,0.532,0.767,2.83,1.21,-8.04,R
,394751,2514,0,1833,-0.277,0.527,0.770,-0.26,-1.39,-7.18,R
,394761,2512,0,1834,-0.268,0.532,0.788,-0.96,-2.34,-6.69,R
,394771,2512,0,1834,-0.270,0.540,0.807,1.10,0.55,-4.22,R
,394781,2519,0,1836,-0.273,0.570,0.827,2.95,4.03,-3.21,R
,394791,2527,0,1838,-0.295,0.607,0.826,3.41,6.50,-2.11,R
,394801,2528,0,1840,-0.303,0.600,0.827,2.60,6.41,-1.61,R
,394811,2518,0,1838,-0.314,0.597,0.829,1.13,4.14,-1.15,R
,394821,2553,0,1840,-0.305,0.593,0.828,0.94,3.01,-0.80,R
,394831,2541,0,1838,-0.306,0.583,0.818,-1.58,0.49,-0.78,R
,394841,2543,0,1838,-0.277,0.560,0.813,-2.39,-0.15,-0.89,R
,394851,2544,0,1840,-0.275,0.557,0.803,-2.77,0.72,1.25,R
,394861,2547,0,1840,-0.267,0.535,0.791,-4.85,0.60,2.01,R
,394871,2545,0,1837,-0.266,0.534,0.793,-7.31,-0.95,2.41,R
,394881,2547,0,1839,-0.261,0.537,0.802,-8.44,-3.66,3.23,R
,394891,2546,0,1841,-0.259,0.538,0.812,-9.63,-4.92,4.27,R
,394901,2553,0,1840,-0.245,0.544,0.820,-9.45,-4.18,5.61,R
,394911,2547,0,1840,-0.252,0.528,0.842,-11.02,-3.45,5.31,R
,394921,2559,0,1840,-0.251,0.533,0.839,-8.47,-1.24,5.17,R
,394931,2549,0,1838,-0.270,0.540,0.837,-10.61,-1.94,5.31,R
,394941,2550,0,1840,-0.260,0.531,0.830,-11.28,-4.67,4.79,R
,394951,2551,0,1839,-0.266,0.532,0.826,-14.47,-8.21,4.59,R
,394961,2556,0,1840,-0.236,0.505,0.835,-13.86,-10.09,4.02,R
,394971,2547,0,1839,-0.232,0.508,0.855,-14.06,-9.57,2.04,R
,394981,2559,0,1840,-0.225,0.513,0.847,-8.68,-5.08,2.94,R
,394991,2559,0,1834,-0.234,0.508,0.849,-8.97,-1.94,3.38,R
,395001,2559,0,1840,-0.226,0.510,0.849,-7.43,0.75,2.91,R
,395011,2559,0,1834,-0.240,0.497,0.860,-7.29,-1.94,0.85,R
,395021,2559,0,1841,-0.240,0.490,0.856,-6.39,-4.89,-0.16,R
,395031,2559,0,1837,-0.234,0.492,0.854,-5.22,-7.07,-2.39,R
,395041,2559,0,1835,-0.223,0.465,0.861,-2.67,-7.05,-4.54,R
,395051,2559,0,1839,-0.227,0.475,0.858,-0.65,-5.30,-4.27,R
,395061,2559,0,1840,-0.212,0.471,0.848,2.90,-0.89,-4.39,R
,395071,2559,0,1840,-0.200,0.449,0.861,4.72,1.80,-6.28,R
,395081,2581,0,1837,-0.234,0.482,0.844,5.07,4.34,-4.72,R
,395091,2559,0,1838,-0.217,0.497,0.844,7.45,5.74,-4.13,R
,395101,2592,0,1835,-0.254,0.523,0.854,2.32,2.31,-3.76,R
,395111,2582,0,1833,-0.255,0.543,0.852,4.65,1.30,-0.88,R
,395121,2559,0,1835,-0.249,0.580,0.844,2.11,0.18,-1.61,R
,395131,2559,0,1830,-0.253,0.572,0.848,-0.03,-0.57,-4.04,R
,395141,2559,0,1838,-0.253,0.556,0.841,0.00,-1.10,-4.59,R
,395151,2559,0,1838,-0.240,0.537,0.847,1.87,-0.35,-4.69,R
,395161,2559,0,1840,-0.232,0.513,0.845,1.59,-0.87,-5.37,R
,395171,2559,0,1836,-0.247,0.520,0.821,0.92,-0.17,-4.78,R
,395181,2559,0,1837,-0.227,0.505,0.823,1.84,1.18,-3.70,R
,395191,2559,0,1837,-0.239,0.516,0.835,1.84,1.85,-4.91,R
,395201,2583,0,1833,-0.251,0.520,0.838,-0.30,0.60,-4.40,R
,395211,2586,0,1834,-0.251,0.514,0.839,0.10,-1.34,-3.00,R
,395221,2559,0,1834,-0.253,0.497,0.849,0.00,-3.22,-2.75,R
,395231,2583,0,1835,-0.243,0.520,0.843,4.17,-0.05,-2.43,R
,395241,2559,0,1831,-0.242,0.529,0.853,3.07,2.15,-4.25,R
,395251,2559,0,1836,-0.280,0.542,0.853,1.26,2.03,-3.82,R
,395261,2587,0,1836,-0.256,0.524,0.856,5.82,3.82,-1.96,R
,395271,2602,0,1836,-0.254,0.539,0.847,5.30,4.64,-2.54,R
,395281,2603,0,1839,-0.258,0.535,0.838,3.19,4.29,-4.11,R
,395291,2595,0,1837,-0.278,0.541,0.828,-0.70,0.90,-4.66,R
,395301,2611,0,1838,-0.277,0.523,0.802,1.68,-1.60,-2.46,R
,395311,2590,0,1840,-0.265,0.535,0.793,0.10,-4.81,-1.62,R
,395321,2559,0,1838,-0.259,0.535,0.783,-2.51,-6.55,-1.85,R
,395331,2559,0,1840,-0.268,0.529,0.813,-6.68,-7.16,-2.98,R
,395341,2559,0,1840,-0.275,0.529,0.824,-1.92,-3.77,-0.98,R
,395351,2559,0,1839,-0.252,0.543,0.854,-0.44,-2.82,0.16,R
,395361,2586,0,1839,-0.253,0.554,0.858,2.08,-0.05,-0.48,R
,395371,2588,0,1837,-0.254,0.537,0.866,0.84,0.23,-1.49,R
,395381,2559,0,1840,-0.258,0.527,0.845,0.77,-1.04,-0.89,R
,395391,2559,0,1837,-0.249,0.505,0.811,-1.90,-3.88,0.38,R
,395401,2559,0,1840,-0.225,0.506,0.815,-0.61,-3.50,0.96,R
,395411,2559,0,1840,-0.229,0.521,0.830,-3.61,-1.79,0.85,R
,395421,2583,0,1841,-0.233,0.518,0.818,-5.84,-1.74,-0.04,R
,395431,2559,0,1842,-0.237,0.514,0.843,-4.55,-2.67,0.31,R
,395441,2581,0,1840,-0.248,0.527,0.838,-2.27,-2.46,0.65,R
,395451,2583,0,1843,-0.225,0.523,0.842,-1.42,-2.55,0.21,R
,395461,2593,0,1845,-0.227,0.518,0.853,-3.40,-1.60,-1.15,R
,395471,2595,0,1850,-0.242,0.521,0.846,-2.06,-0.60,-1.04,R
,395481,2601,0,1846,-0.236,0.514,0.845,0.65,2.08,-0.60,R
,395491,2604,0,1842,-0.231,0.510,0.841,1.15,3.76,-0.01,R
,395501,2610,0,1841,-0.249,0.531,0.836,-2.33,2.50,-0.80,R
,395511,2610,0,1843,-0.253,0.515,0.836,-4.22,0.60,-1.30,R
,395521,2618,0,1846,-0.248,0.520,0.816,-4.88,-1.56,0.18,R
,395531,2623,0,1842,-0.226,0.505,0.822,-5.45,-3.34,-0.54,R
,395541,2625,0,1846,-0.195,0.511,0.827,-2.27,-1.73,-2.17,R
,395551,2629,0,1843,-0.192,0.512,0.842,-0.56,1.48,-0.88,R
,395561,2640,0,1844,-0.193,0.513,0.854,1.91,5.04,-0.27,R
,395571,2669,0,1845,-0.209,0.524,0.860,1.01,8.08,0.63,R
,395581,2613,0,1846,-0.220,0.538,0.862,-1.14,6.43,2.33,R
,395591,2608,0,1846,-0.242,0.551,0.856,-4.18,3.98,3.12,R
,395601,2624,0,1840,-0.234,0.535,0.857,-3.98,2.69,3.06,R
,395611,2611,0,1841,-0.265,0.549,0.835,-5.68,2.32,2.70,R
,395621,2586,0,1841,-0.272,0.549,0.851,-6.97,1.48,2.30,R
,395631,2615,0,1841,-0.300,0.542,0.854,-5.86,4.81,2.24,R
,395641,2608,0,1846,-0.307,0.541,0.866,-6.10,5.34,2.39,R
,395651,2610,0,1842,-0.314,0.536,0.856,-6.91,3.34,0.34,R
,395661,2607,0,1843,-0.315,0.503,0.849,-7.35,-0.14,0.02,R
,395671,2589,0,1840,-0.308,0.491,0.842,-4.15,-2.44,1.20,R
,395681,2596,0,1838,-0.285,0.496,0.839,-0.10,-1.33,3.96,R
,395691,2592,0,1840,-0.269,0.513,0.828,-0.61,0.17,6.22,R
,395701,2590,0,1840,-0.264,0.508,0.840,-1.69,3.57,4.21,R
,395711,2587,0,1840,-0.296,0.513,0.844,-2.47,5.39,4.85,R
,395721,2588,0,1840,-0.305,0.528,0.848,-1.25,4.50,6.25,R
,395731,2581,0,1838,-0.289,0.517,0.854,-3.43,1.94,6.05,R
,395741,2559,0,1840,-0.297,0.534,0.854,-4.91,1.85,6.15,R
,395751,2589,0,1843,-0.303,0.523,0.886,-6.91,2.05,4.05,R
,395761,2559,0,1840,-0.301,0.528,0.858,-7.86,0.38,4.62,R
,395771,2559,0,1841,-0.289,0.512,0.852,-9.72,-3.82,4.50,R
,395781,2542,0,1840,-0.267,0.494,0.819,-11.63,-8.28,4.50,R
,395791,2528,0,1840,-0.259,0.485,0.813,-10.45,-11.37,3.60,R
,395801,2512,0,1842,-0.239,0.477,0.818,-7.74,-10.02,3.87,R
,395811,2513,0,1841,-0.223,0.469,0.814,-4.82,-7.88,3.02,R
,395821,2478,0,1841,-0.232,0.476,0.838,-2.84,-5.44,4.02,R
,395831,2448,0,1840,-0.231,0.484,0.842,1.12,-3.16,5.23,R
,395841,2425,0,1840,-0.240,0.496,0.836,1.33,-3.73,4.51,R
,395851,2420,0,1843,-0.248,0.502,0.845,0.31,-4.57,3.66,R
,395861,2372,0,1841,-0.256,0.504,0.859,0.07,-2.98,4.04,R
,395871,2383,0,1839,-0.263,0.548,0.877,-2.38,-2.60,4.04,R
,395881,2382,0,1840,-0.244,0.522,0.868,-6.53,-6.02,3.14,R
,395891,2368,0,1841,-0.252,0.512,0.892,-8.36,-9.74,2.51,R
,395901,2329,0,1840,-0.234,0.520,0.841,-6.22,-8.21,4.73,R
,395911,2318,0,1840,-0.219,0.489,0.846,-8.65,-7.47,3.60,R
,395921,2288,0,1840,-0.211,0.491,0.837,-9.87,-7.07,3.28,R
,395931,2290,0,1840,-0.220,0.493,0.839,-8.00,-7.27,5.14,R
,395941,2261,0,1840,-0.225,0.487,0.838,-6.58,-9.13,6.38,R
,395951,2258,0,1842,-0.243,0.496,0.850,-6.06,-12.44,7.29,R
,395961,2222,0,1840,-0.247,0.499,0.858,-7.40,-15.83,8.19,R
,395971,2199,0,1839,-0.216,0.489,0.868,-4.16,-15.89,8.88,R
,395981,2169,0,1840,-0.202,0.498,0.878,-5.57,-17.45,6.15,R
,395991,2169,0,1839,-0.175,0.470,0.903,-4.77,-18.69,3.08,R
,396001,2145,0,1840,-0.156,0.465,0.922,0.40,-18.69,-0.85,R
,396011,2035,0,1835,-0.185,0.476,0.900,4.72,-16.05,-0.04,R
,396021,2014,0,1840,-0.179,0.484,0.854,7.73,-14.26,1.80,R
,396031,1939,0,1839,-0.193,0.492,0.823,7.67,-13.44,2.85,R
,396041,1865,0,1834,-0.209,0.486,0.785,5.18,-15.18,3.49,R
,396051,1635,0,1837,-0.265,0.479,0.775,-9.98,-24.82,7.78,R
,396061,1277,0,1835,-0.242,0.448,0.743,-5.75,-33.69,6.93,R
,396071,1076,0,1831,-0.239,0.425,0.724,-7.08,-41.95,11.22,R
,396081,848,0,1837,-0.219,0.426,0.738,-10.76,-45.97,15.86,R
,396091,763,0,1838,-0.181,0.440,0.792,-16.29,-45.68,14.73,R
,396101,683,0,1842,-0.133,0.500,0.818,-20.71,-38.43,12.31,R
,396111,646,0,1839,-0.159,0.497,0.882,-24.48,-37.10,6.54,R
,396121,625,0,1839,-0.139,0.472,0.953,-13.39,-25.40,6.07,R
,396131,511,0,1838,-0.126,0.480,0.981,-4.81,-16.17,3.34,R
,396141,358,0,1840,-0.103,0.488,1.019,-5.10,-11.28,3.22,R
,396151,0,0,1839,-0.083,0.476,0.971,3.42,-4.09,-0.46,R
,396161,125,0,1840,-0.108,0.497,0.954,9.13,5.76,-2.40,R
,396171,53,0,1839,-0.112,0.456,0.975,16.16,8.53,-3.15,R
,396181,228,0,1840,-0.130,0.464,0.950,11.27,5.31,-6.28,R
,396191,309,0,1837,-0.140,0.448,0.963,13.21,2.21,-5.59,R
,396201,0,0,1843,-0.136,0.459,0.992,15.32,0.63,-2.59,R
,396211,67,0,1840,-0.132,0.493,0.939,20.42,3.60,0.94,R
,396221,24,0,1841,-0.123,0.504,0.927,19.70,4.50,1.02,R
,396231,0,0,1841,-0.134,0.539,0.909,11.61,4.21,2.10,R
,396241,0,0,1840,-0.151,0.548,0.920,9.62,1.97,2.79,R
,396251,0,0,1839,-0.133,0.528,0.965,2.51,-2.57,4.83,R
,396261,0,0,1839,-0.125,0.542,0.916,6.45,-3.56,8.24,R
,396271,0,0,1839,-0.105,0.546,0.911,3.81,-4.43,9.06,R
,396281,0,0,1842,-0.099,0.538,0.894,-0.88,-1.94,9.09,R
,396291,0,0,1842,-0.088,0.515,0.906,-4.94,-0.98,8.42,R
,396301,0,0,1843,-0.094,0.495,0.922,-4.19,-0.67,7.96,R
,396311,0,0,1840,-0.102,0.471,0.917,-0.07,0.49,5.99,R
,396321,0,0,1841,-0.125,0.492,0.916,3.85,1.60,4.15,R
,396331,0,0,1841,-0.141,0.498,0.904,8.71,4.72,2.41,R
,396341,0,0,1845,-0.154,0.502,0.894,11.68,7.11,2.44,R
,396351,0,0,1837,-0.167,0.519,0.883,14.14,6.61,3.03,R
,396361,0,0,1840,-0.178,0.527,0.875,15.84,4.93,3.81,R
,396371,0,0,1838,-0.183,0.546,0.856,15.96,1.98,4.60,R
,396381,0,0,1839,-0.168,0.548,0.860,12.54,-2.58,4.86,R
,396391,0,0,1835,-0.163,0.545,0.835,8.84,-7.37,3.31,R
,396401,0,0,1840,-0.156,0.544,0.823,5.33,-11.65,2.77,R
,396411,0,0,1840,-0.146,0.544,0.821,3.52,-14.73,1.69,R
,396421,0,0,1838,-0.136,0.534,0.809,2.71,-15.73,1.18,R
,396431,0,0,1837,-0.121,0.529,0.806,3.07,-14.53,0.28,R
,396441,0,0,1839,-0.118,0.519,0.810,1.88,-11.65,-0.22,R
,396451,0,0,1839,-0.119,0.516,0.811,2.14,-8.72,-1.07,R
,396461,0,0,1840,-0.110,0.520,0.799,3.85,-6.69,-1.81,R
,396471,0,0,1840,-0.115,0.521,0.799,6.28,-3.95,-3.41,R
,396481,0,0,1836,-0.129,0.534,0.789,7.07,-2.57,-4.91,R
,396491,0,0,1836,-0.131,0.533,0.786,6.51,-2.46,-5.99,R
,396501,0,0,1837,-0.129,0.532,0.786,5.01,-3.80,-6.49,R
,396511,0,0,1833,-0.131,0.543,0.786,3.21,-4.38,-6.05,R
,396521,0,0,1831,-0.131,0.544,0.786,0.89,-3.82,-5.58,R
,396531,0,0,1840,-0.125,0.544,0.793,-1.17,-2.72,-5.75,R
,396541,0,0,1836,-0.124,0.542,0.790,-2.15,-0.96,-6.07,R
,396551,0,0,1837,-0.135,0.543,0.803,-2.88,1.51,-6.08,R
,396561,0,0,1833,-0.146,0.545,0.813,-2.61,4.18,-4.72,R
,396571,0,0,1836,-0.159,0.547,0.807,-2.62,7.28,-3.17,R
,396581,0,0,1838,-0.172,0.555,0.819,-3.52,10.49,-0.97,R
,396591,0,0,1839,-0.201,0.572,0.848,-6.74,12.73,1.14,R
,396601,0,0,1835,-0.212,0.566,0.864,-9.72,12.34,2.85,R
,396611,0,0,1834,-0.211,0.557,0.875,-10.85,8.49,3.81,R
,396621,0,0,1840,-0.208,0.538,0.889,-9.08,3.51,2.97,R
,396631,0,0,1839,-0.207,0.543,0.880,-7.45,-0.57,3.40,R
,396641,0,0,1840,-0.196,0.530,0.890,-6.71,-2.29,3.44,R
,396651,0,0,1843,-0.189,0.523,0.877,-5.49,-2.37,3.23,R
,396661,0,0,1840,-0.172,0.519,0.886,-2.26,-2.86,3.11,R
,396671,0,0,1840,-0.149,0.506,0.863,2.20,-2.44,3.60,R
,396681,0,0,1837,-0.130,0.517,0.849,5.13,-1.44,3.61,R
,396691,0,0,1840,-0.113,0.524,0.827,5.93,0.70,3.47,R
,396701,0,0,1840,-0.107,0.522,0.819,4.23,3.66,3.02,R
,396711,0,0,1840,-0.115,0.525,0.808,2.16,4.85,2.10,R
,396721,0,0,1840,-0.114,0.528,0.823,1.10,5.42,1.89,R
,396731,0,0,1837,-0.102,0.533,0.827,-0.59,4.69,1.73,R
,396741,0,0,1838,-0.104,0.527,0.825,-3.26,3.88,1.00,R
,396751,0,0,1840,-0.109,0.532,0.820,-4.07,3.07,-0.98,R
,396761,0,0,1841,-0.112,0.517,0.841,-5.39,0.64,-2.92,R
,396771,0,0,1841,-0.113,0.517,0.851,-2.99,-1.22,-4.71,R
,396781,0,0,1844,-0.107,0.519,0.846,-1.08,-1.36,-5.33,R
,396791,0,0,1845,-0.099,0.527,0.848,0.86,0.73,-5.03,R
,396801,0,0,1845,-0.094,0.535,0.858,2.25,3.43,-4.74,R
,396811,0,0,1840,-0.105,0.553,0.852,1.84,7.48,-3.78,R
,396821,0,0,1840,-0.120,0.557,0.857,-0.09,10.24,-2.92,R
,396831,0,0,1842,-0.135,0.554,0.864,-1.84,10.89,-2.10,R
,396841,0,0,1843,-0.137,0.541,0.870,-2.51,8.21,-2.07,R
,396851,0,0,1840,-0.146,0.536,0.874,-1.64,5.79,-2.31,R
,396861,0,0,1840,-0.154,0.534,0.871,-1.77,4.85,-3.27,R
,396871,0,0,1838,-0.178,0.527,0.877,-2.65,3.69,-3.66,R
,396881,0,0,1840,-0.176,0.521,0.887,-2.16,1.50,-4.27,R
,396891,20,0,1839,-0.176,0.517,0.892,0.55,-1.04,-4.31,R
,396901,6,0,1843,-0.170,0.514,0.886,2.97,-2.78,-4.43,R
,396911,10,0,1840,-0.166,0.524,0.887,4.31,-2.72,-4.01,R
,396921,0,0,1839,-0.160,0.531,0.879,3.49,-1.22,-3.49,R
,396931,35,0,1840,-0.161,0.524,0.886,2.60,0.32,-3.41,R
,396941,35,0,1840,-0.163,0.527,0.877,2.48,0.87,-2.37,R
,396951,33,0,1837,-0.161,0.524,0.868,3.41,1.56,-1.61,R
,396961,57,0,1840,-0.159,0.519,0.872,3.09,2.14,-1.20,R
,396971,32,0,1841,-0.165,0.521,0.855,1.12,2.85,-1.61,R
,396981,34,0,1842,-0.179,0.517,0.865,-0.67,2.12,-2.04,R
,396991,35,0,1843,-0.178,0.515,0.876,-0.87,0.55,-2.04,R
,397001,4,0,1841,-0.178,0.519,0.881,0.75,-1.48,-2.10,R
,397011,34,0,1839,-0.173,0.521,0.871,2.11,-3.57,-2.36,R
,397021,39,0,1841,-0.170,0.530,0.866,2.14,-3.89,-2.97,R
,397031,34,0,1840,-0.174,0.535,0.869,1.39,-3.69,-3.11,R
,397041,36,0,1840,-0.179,0.541,0.871,0.58,-2.60,-2.53,R
,397051,32,0,1837,-0.178,0.535,0.875,0.11,-1.66,-1.84,R
,397061,0,0,1839,-0.171,0.520,0.886,-0.36,-2.60,-0.82,R
,397071,39,0,1840,-0.165,0.522,0.881,1.97,-3.71,-0.36,R
,397081,39,0,1849,-0.177,0.538,0.869,2.71,-3.99,0.30,R
,397091,39,0,1840,-0.175,0.533,0.879,2.43,-3.86,0.73,R
,397101,33,0,1840,-0.171,0.528,0.883,2.34,-5.62,0.82,R
,397111,57,0,1840,-0.158,0.524,0.882,3.71,-7.45,0.56,R
,397121,48,0,1840,-0.147,0.526,0.885,4.69,-9.47,0.44,R
,397131,52,0,1840,-0.143,0.524,0.878,5.74,-9.91,0.12,R
,397141,54,0,1840,-0.134,0.527,0.863,5.53,-9.48,-0.77,R
,397151,55,0,1839,-0.140,0.527,0.872,5.56,-9.39,-0.95,R
,397161,54,0,1839,-0.140,0.527,0.874,5.76,-9.40,-0.59,R
,397171,55,0,1840,-0.139,0.527,0.870,6.83,-9.50,-0.20,R
,397181,51,0,1842,-0.138,0.520,0.869,6.55,-10.67,-0.31,R
,397191,57,0,1840,-0.135,0.525,0.872,6.43,-11.73,-0.17,R
,397201,16,0,1840,-0.131,0.522,0.875,7.93,-11.74,-0.59,R
,397211,52,0,1838,-0.124,0.523,0.872,8.77,-12.06,-1.49,R
,397221,62,0,1840,-0.118,0.521,0.859,8.89,-12.12,-2.39,R
,397231,53,0,1838,-0.116,0.518,0.844,9.30,-11.39,-3.29,R
,397241,61,0,1840,-0.112,0.525,0.842,9.52,-10.14,-3.96,R
,397251,17,0,1840,-0.112,0.528,0.823,9.10,-8.89,-4.60,R
,397261,64,0,1840,-0.116,0.528,0.819,8.10,-8.60,-5.03,R
,397271,55,0,1837,-0.122,0.532,0.818,7.18,-7.97,-5.30,R
,397281,51,0,1842,-0.125,0.536,0.809,6.11,-7.80,-5.09,R
,397291,51,0,1840,-0.130,0.531,0.817,6.23,-6.95,-5.40,R
,397301,51,0,1840,-0.134,0.552,0.814,3.93,-6.28,-4.78,R
,397311,51,0,1840,-0.140,0.562,0.816,3.52,-5.89,-5.53,R
,397321,48,0,1840,-0.141,0.554,0.822,2.87,-5.97,-5.82,R
,397331,53,0,1838,-0.157,0.555,0.822,3.19,-5.33,-5.50,R
,397341,57,0,1840,-0.155,0.564,0.825,4.89,-5.37,-5.32,R
,397351,50,0,1835,-0.155,0.570,0.829,6.39,-4.73,-4.88,R
,397361,50,0,1839,-0.160,0.574,0.830,6.52,-2.96,-4.31,R
,397371,55,0,1838,-0.169,0.585,0.827,5.91,-2.28,-3.75,R
,397381,49,0,1839,-0.178,0.585,0.826,5.38,-2.41,-2.36,R
,397391,57,0,1840,-0.174,0.586,0.820,5.13,-4.00,-1.64,R
,397401,47,0,1838,-0.171,0.585,0.815,5.55,-5.30,-0.82,R
,397411,27,0,1840,-0.159,0.589,0.801,5.12,-5.63,-0.28,R
,397421,57,0,1840,-0.153,0.589,0.804,4.65,-6.18,-0.01,R
,397431,48,0,1840,-0.141,0.596,0.807,3.87,-5.33,0.86,R
,397441,51,0,1837,-0.140,0.589,0.798,4.31,-3.27,1.66,R
,397451,55,0,1840,-0.131,0.586,0.789,3.68,-1.51,2.67,R
,397461,52,0,1841,-0.135,0.588,0.797,2.37,0.18,2.73,R
,397471,49,0,1840,-0.139,0.591,0.792,2.03,0.34,3.70,R
,397481,46,0,1841,-0.136,0.589,0.792,2.84,0.12,4.41,R
,397491,48,0,1840,-0.133,0.589,0.787,3.13,0.21,4.97,R
,397501,48,0,1842,-0.128,0.593,0.788,1.90,0.50,6.05,R
,397511,39,0,1843,-0.121,0.596,0.783,0.40,2.40,7.06,R
,397521,41,0,1840,-0.119,0.595,0.787,-1.43,3.60,7.32,R
,397531,52,0,1841,-0.113,0.580,0.795,-4.27,3.89,7.72,R
,397541,44,0,1843,-0.123,0.583,0.801,-3.84,4.41,8.56,R
,397551,44,0,1840,-0.117,0.578,0.811,-1.83,5.37,8.76,R
,397561,45,0,1835,-0.107,0.572,0.816,-0.53,6.37,8.57,R
,397571,37,0,1838,-0.110,0.573,0.810,-0.73,8.20,7.87,R
,397581,46,0,1839,-0.116,0.578,0.807,-2.42,9.10,7.44,R
,397591,48,0,1831,-0.125,0.576,0.813,-4.12,9.34,7.54,R
,397601,48,0,1840,-0.130,0.576,0.825,-5.13,9.22,8.63,R
,397611,45,0,1834,-0.135,0.570,0.832,-5.37,8.75,8.94,R
,397621,46,0,1835,-0.134,0.568,0.849,-7.39,7.40,9.00,R
,397631,43,0,1835,-0.133,0.561,0.855,-8.96,5.04,8.97,R
,397641,48,0,1833,-0.137,0.565,0.863,-8.07,4.01,9.32,R
,397651,48,0,1838,-0.139,0.569,0.875,-6.76,4.35,9.87,R
,397661,51,0,1839,-0.140,0.572,0.872,-6.35,4.55,10.77,R
,397671,48,0,1839,-0.142,0.560,0.871,-6.06,4.55,11.06,R
,397681,48,0,1837,-0.139,0.557,0.879,-5.90,3.51,11.03,R
,397691,48,0,1837,-0.134,0.546,0.881,-5.29,2.08,10.39,R
,397701,48,0,1837,-0.129,0.543,0.886,-3.83,0.61,9.66,R
,397711,51,0,1834,-0.121,0.539,0.875,-2.53,-0.63,8.77,R
,397721,49,0,1838,-0.116,0.538,0.878,-2.51,-1.42,7.92,R
,397731,21,0,1843,-0.114,0.534,0.867,-2.93,-2.17,7.57,R
,397741,65,0,1840,-0.120,0.538,0.866,-3.11,-2.35,7.44,R
,397751,74,0,1835,-0.111,0.532,0.861,-3.11,-2.28,7.46,R
,397761,53,0,1833,-0.111,0.534,0.859,-2.51,-2.60,7.47,R
,397771,50,0,1841,-0.111,0.533,0.857,-1.84,-1.80,6.93,R
,397781,55,0,1839,-0.106,0.537,0.858,-1.46,-2.03,6.12,R
,397791,57,0,1838,-0.106,0.537,0.836,-2.03,-2.26,5.44,R
,397801,61,0,1840,-0.107,0.534,0.844,-1.98,-2.20,5.02,R
,397811,50,0,1840,-0.104,0.538,0.835,-2.76,-2.35,5.12,R
,397821,52,0,1840,-0.114,0.543,0.833,-4.94,-2.96,5.12,R
,397831,53,0,1840,-0.139,0.557,0.859,-8.48,-6.02,5.63,R
,397841,49,0,1840,-0.204,0.533,0.889,-9.39,-11.31,9.34,R
,397851,54,0,1838,-0.163,0.508,0.915,-12.10,-23.83,13.99,R
,397861,49,0,1840,-0.177,0.506,0.869,-3.05,-31.88,18.68,R
,397871,48,0,1839,-0.190,0.546,0.883,8.92,-33.15,24.18,R
,397881,48,0,1840,-0.118,0.576,0.853,12.66,-30.63,28.05,R
,397891,58,0,1841,-0.064,0.620,0.849,13.21,-23.65,27.80,R
,397901,51,0,1840,-0.078,0.639,0.818,8.97,-20.66,28.05,R
,397911,53,0,1840,-0.032,0.641,0.819,1.29,-15.60,24.67,R
,397921,51,0,1840,-0.055,0.618,0.849,-3.31,-16.12,22.48,R
,397931,50,0,1840,-0.065,0.589,0.822,-5.81,-18.43,21.40,R
,397941,48,0,1842,-0.081,0.561,0.846,-2.13,-19.42,21.46,R
,397951,49,0,1842,-0.042,0.545,0.788,-5.39,-24.57,21.83,R
,397961,55,0,1843,-0.017,0.577,0.820,-3.84,-16.93,21.61,R
,397971,53,0,1840,-0.029,0.557,0.828,-2.41,-17.22,22.93,R
,397981,48,0,1840,0.013,0.550,0.804,1.52,-11.85,25.31,R
,397991,54,0,1840,0.020,0.547,0.795,4.77,-6.55,26.67,R
,398001,48,0,1841,0.031,0.549,0.773,5.84,-1.83,23.54,R
,398011,53,0,1835,0.025,0.561,0.815,2.14,2.32,21.90,R
,398021,48,0,1837,0.018,0.560,0.830,-0.42,3.72,20.22,R
,398031,50,0,1839,0.011,0.540,0.819,-0.07,4.81,18.70,R
,398041,51,0,1839,0.011,0.555,0.829,-1.72,5.36,16.59,R
,398051,48,0,1840,-0.000,0.555,0.831,-3.57,4.24,14.39,R
,398061,48,0,1840,-0.003,0.552,0.835,-5.66,3.62,12.93,R
,398071,54,0,1840,-0.003,0.540,0.842,-7.60,1.85,11.89,R
,398081,52,0,1835,-0.011,0.536,0.834,-8.71,1.10,11.28,R
,398091,50,0,1840,-0.010,0.535,0.855,-8.62,-0.21,11.05,R
,398101,50,0,1840,-0.003,0.530,0.861,-5.57,0.58,11.86,R
,398111,43,0,1840,0.005,0.513,0.870,-4.77,2.72,11.76,R
,398121,49,0,1841,-0.016,0.517,0.884,-2.64,2.46,10.25,R
,398131,48,0,1840,-0.006,0.530,0.864,0.78,3.21,9.93,R
,398141,60,0,1840,-0.002,0.531,0.863,0.84,5.25,9.58,R
,398151,3,0,1840,0.001,0.540,0.869,1.45,5.42,9.38,R
,398161,62,0,1840,0.001,0.551,0.860,0.65,5.89,8.77,R
,398171,58,0,1839,-0.000,0.539,0.856,-0.70,5.63,7.26,R
,398181,50,0,1839,0.001,0.532,0.874,-2.48,3.63,5.15,R
,398191,50,0,1840,-0.003,0.531,0.874,-2.59,1.76,3.90,R
,398201,48,0,1844,0.005,0.528,0.868,-1.20,0.61,2.45,R
,398211,50,0,1840,0.010,0.521,0.873,-0.64,-0.73,1.08,R
,398221,49,0,1840,0.013,0.528,0.876,0.29,-1.24,-0.34,R
,398231,51,0,1839,0.012,0.535,0.866,2.45,-0.11,-0.85,R
,398241,51,0,1841,0.011,0.537,0.872,3.71,1.43,-1.26,R
,398251,51,0,1840,0.013,0.547,0.868,4.60,2.18,-1.32,R
,398261,54,0,1840,0.008,0.559,0.860,5.59,3.39,-1.37,R
,398271,51,0,1840,0.006,0.565,0.854,4.83,3.66,-1.21,R
,398281,57,0,1838,-0.003,0.564,0.854,3.00,3.07,-1.44,R
,398291,47,0,1840,-0.006,0.572,0.858,1.78,1.76,-1.24,R
,398301,48,0,1840,-0.014,0.570,0.857,1.27,0.49,-1.03,R
,398311,54,0,1840,-0.008,0.565,0.859,0.63,0.24,-0.43,R
,398321,0,0,1838,-0.013,0.563,0.854,-0.03,0.20,0.21,R
,398331,48,0,1838,-0.011,0.564,0.863,0.37,0.17,0.15,R
,398341,51,0,1833,-0.011,0.567,0.846,1.07,0.14,-0.27,R
,398351,52,0,1840,-0.010,0.559,0.849,1.04,-0.79,-1.24,R
,398361,48,0,1838,-0.016,0.565,0.838,1.30,-1.54,-2.25,R
,398371,48,0,1841,-0.022,0.563,0.844,1.96,-2.06,-2.75,R
,398381,48,0,1838,-0.027,0.558,0.838,2.25,-2.47,-3.00,R
,398391,58,0,1840,-0.022,0.559,0.825,2.14,-2.60,-2.86,R
,398401,53,0,1839,-0.026,0.568,0.818,1.50,-1.60,-2.24,R
,398411,58,0,1840,-0.022,0.564,0.818,0.08,-0.43,-1.76,R
,398421,51,0,1838,-0.030,0.569,0.798,-2.50,-0.35,-1.35,R
,398431,55,0,1835,-0.038,0.574,0.787,-6.67,-0.50,-0.33,R
,398441,52,0,1839,-0.038,0.578,0.785,-10.74,-1.04,1.89,R
,398451,51,0,1839,-0.057,0.590,0.780,-18.64,-2.79,4.42,R
,398461,53,0,1837,-0.061,0.594,0.774,-27.95,-5.79,7.23,R
,398471,54,0,1838,-0.043,0.579,0.778,-35.05,-10.95,8.89,R
,398481,51,0,1840,-0.013,0.550,0.783,-38.38,-15.80,8.79,R
,398491,49,0,1840,0.009,0.521,0.813,-39.13,-17.74,5.76,R
,398501,50,0,1840,0.022,0.505,0.830,-37.06,-16.14,2.51,R
,398511,52,0,1840,0.029,0.483,0.837,-29.78,-9.82,0.63,R
,398521,49,0,1841,0.025,0.482,0.862,-20.10,-0.57,0.62,R
,398531,51,0,1837,0.018,0.488,0.885,-9.42,8.37,-0.66,R
,398541,52,0,1838,-0.003,0.510,0.884,-3.39,11.95,-2.83,R
,398551,70,0,1839,-0.029,0.539,0.887,-3.80,10.17,-3.88,R
,398561,59,0,1838,-0.064,0.555,0.886,-6.45,5.45,-3.14,R
,398571,63,0,1838,-0.045,0.569,0.852,-13.03,-4.49,-2.19,R
,398581,48,0,1835,-0.044,0.575,0.878,-20.91,-12.05,-1.59,R
,398591,54,0,1838,-0.028,0.558,0.904,-27.45,-21.10,-0.54,R
,398601,59,0,1839,-0.006,0.540,0.898,-29.68,-25.15,0.34,R
,398611,60,0,1838,0.031,0.515,0.922,-26.93,-23.31,0.70,R
,398621,54,0,1837,0.057,0.489,0.926,-20.77,-17.85,-0.56,R
,398631,52,0,1838,0.050,0.483,0.931,-13.05,-10.28,-2.02,R
,398641,53,0,1840,0.034,0.488,0.936,-4.56,-2.47,-3.26,R
,398651,54,0,1840,0.030,0.482,0.923,1.50,-0.34,-6.01,R
,398661,51,0,1842,0.025,0.485,0.928,6.00,0.26,-7.59,R
,398671,64,0,1843,0.010,0.500,0.900,6.25,-3.08,-9.04,R
,398681,64,0,1839,-0.004,0.509,0.897,5.36,-6.37,-8.83,R
,398691,64,0,1840,-0.012,0.521,0.898,0.68,-10.79,-8.25,R
,398701,67,0,1840,-0.009,0.517,0.896,-2.94,-14.67,-6.89,R
,398711,64,0,1840,0.017,0.524,0.881,-7.45,-17.31,-5.55,R
,398721,62,0,1837,0.034,0.512,0.886,-7.92,-16.49,-4.10,R
,398731,64,0,1839,0.049,0.497,0.865,-7.40,-14.29,-3.09,R
,398741,63,0,1840,0.052,0.493,0.865,-5.19,-9.59,-2.89,R
,398751,59,0,1843,0.042,0.496,0.866,-3.20,-3.04,-2.59,R
,398761,57,0,1842,0.034,0.486,0.866,0.25,1.95,-2.94,R
,398771,64,0,1840,0.009,0.487,0.867,2.77,5.94,-2.78,R
,398781,55,0,1843,-0.006,0.490,0.869,4.16,6.99,-3.04,R
,398791,61,0,1840,-0.018,0.491,0.877,2.87,4.05,-3.91,R
,398801,63,0,1840,-0.024,0.497,0.858,0.23,-0.06,-4.75,R
,398811,63,0,1837,-0.015,0.495,0.856,-2.53,-5.74,-6.07,R
,398821,63,0,1837,0.005,0.501,0.859,-5.42,-10.37,-7.01,R
,398831,66,0,1840,0.023,0.489,0.865,-7.17,-11.08,-7.40,R
,398841,70,0,1840,0.043,0.486,0.866,-7.75,-9.02,-7.79,R
,398851,55,0,1840,0.035,0.492,0.859,-8.18,-3.69,-6.80,R
,398861,25,0,1840,0.032,0.474,0.871,-7.34,2.87,-4.54,R
,398871,66,0,1835,0.020,0.477,0.881,-6.81,6.66,-2.65,R
,398881,70,0,1840,0.035,0.458,0.902,-4.59,5.95,-3.01,R
,398891,66,0,1840,0.021,0.470,0.931,-2.45,4.58,-4.25,R
,398901,65,0,1840,-0.003,0.483,0.911,-2.04,5.57,-4.08,R
,398911,64,0,1841,-0.002,0.484,0.927,-2.04,3.82,-4.54,R
,398921,73,0,1841,0.002,0.490,0.931,-0.81,2.50,-5.40,R
,398931,64,0,1841,-0.004,0.498,0.951,-0.13,1.59,-4.66,R
,398941,64,0,1842,-0.006,0.513,0.948,-0.99,-0.32,-4.17,R
,398951,64,0,1840,-0.035,0.531,0.956,-3.78,-3.44,-2.30,R
,398961,48,0,1840,-0.027,0.535,0.945,-3.31,-6.70,-1.52,R
,398971,48,0,1840,-0.010,0.511,0.934,-1.77,-10.67,-1.96,R
,398981,0,0,1843,0.012,0.510,0.902,-4.97,-13.77,-1.98,R
,398991,0,0,1840,0.013,0.509,0.888,-6.68,-14.86,-2.37,R
,399001,0,0,1840,0.023,0.502,0.885,-5.81,-11.57,-0.97,R
,399011,0,0,1840,0.035,0.495,0.892,-4.67,-7.33,0.73,R
,399021,0,0,1840,0.034,0.481,0.878,-4.04,-4.32,2.41,R
,399031,0,0,1838,0.045,0.463,0.895,-2.19,-1.28,4.19,R
,399041,0,0,1838,0.046,0.465,0.899,-1.57,0.79,5.70,R
,399051,0,0,1840,0.045,0.471,0.916,-1.05,1.89,6.02,R
,399061,0,0,1840,0.054,0.473,0.896,-1.03,2.06,6.65,R
,399071,0,0,1838,0.051,0.471,0.894,-1.00,2.32,6.10,R
,399081,0,0,1840,0.057,0.476,0.897,-1.40,2.24,5.41,R
,399091,0,0,1837,0.053,0.471,0.882,-2.29,2.98,5.37,R
,399101,0,0,1839,0.041,0.482,0.892,-2.21,2.93,4.86,R
,399111,0,0,1840,0.020,0.415,0.836,-3.10,2.82,10.97,R
,399121,0,0,1841,-0.000,0.525,0.819,-11.28,7.21,10.12,R
,399131,0,0,1840,0.021,0.483,0.845,-12.33,7.37,11.43,R
,399141,0,0,1840,0.075,0.475,0.875,-10.06,8.64,7.02,R
,399151,185,0,1839,0.131,0.426,0.836,-4.00,12.12,5.92,R
,399161,205,0,1837,0.089,0.461,0.852,3.00,28.41,4.88,R
,399171,208,0,1836,0.122,0.445,0.802,10.78,41.74,7.35,R
,399181,251,0,1838,0.075,0.494,0.836,13.38,60.00,5.08,R
,399191,256,0,1840,0.031,0.442,0.832,14.00,68.90,7.46,R
,399201,330,0,1840,-0.061,0.442,0.872,11.09,76.46,8.16,R
,399211,365,0,1840,-0.071,0.453,0.886,10.74,75.94,7.35,R
,399221,391,0,1840,-0.117,0.449,0.882,17.01,74.58,9.38,R
,399231,431,0,1840,-0.111,0.458,0.909,23.33,67.14,10.63,R
,399241,413,0,1840,-0.116,0.468,0.899,26.34,58.75,9.51,R
,399251,427,0,1840,-0.108,0.498,0.869,30.19,52.81,5.31,R
,399261,482,0,1840,-0.081,0.532,0.891,28.87,47.59,-0.63,R
,399271,544,0,1840,-0.031,0.519,0.926,33.12,44.29,-7.56,R
,399281,471,0,1840,-0.029,0.512,0.914,39.47,46.21,-12.91,R
,399291,487,0,1840,-0.034,0.584,0.867,41.82,55.74,-14.05,R
,399301,496,0,1840,-0.038,0.542,0.864,56.52,67.45,-14.08,R
,399311,511,0,1843,-0.059,0.577,0.842,60.71,81.18,-16.24,R
,399321,507,0,1841,-0.132,0.610,0.818,57.49,92.81,-16.72,R
,399331,531,0,1840,-0.130,0.579,0.815,44.11,95.33,-17.00,R
,399341,526,0,1842,-0.196,0.590,0.864,31.94,87.07,-19.30,R
,399351,500,0,1840,-0.245,0.584,0.879,26.66,75.34,-19.21,R
,399361,688,0,1842,-0.305,0.594,0.869,19.49,60.37,-14.59,R
,399371,658,0,1840,-0.340,0.572,0.880,19.90,45.79,-6.92,R
,399381,651,0,1840,-0.337,0.594,0.860,20.57,31.72,-0.40,R
,399391,596,0,1840,-0.306,0.609,0.833,17.74,17.74,3.08,R
,399401,595,0,1840,-0.281,0.629,0.817,15.06,8.55,6.54,R
,399411,595,0,1839,-0.254,0.652,0.807,12.77,4.29,5.86,R
,399421,588,0,1840,-0.229,0.656,0.817,11.96,3.72,1.73,R
,399431,659,0,1840,-0.186,0.655,0.808,21.16,10.01,-4.48,R
,399441,654,0,1841,-0.211,0.672,0.777,17.03,16.92,-9.98,R
,399451,720,0,1840,-0.240,0.682,0.771,7.29,22.79,-10.01,R
,399461,720,0,1840,-0.254,0.690,0.785,-0.26,23.30,-6.77,R
,399471,753,0,1839,-0.243,0.625,0.866,-8.48,14.41,-6.59,R
,399481,767,0,1841,-0.266,0.625,0.800,-13.10,3.59,-4.94,R
,399491,741,0,1839,-0.251,0.568,0.797,-18.01,-6.53,-1.24,R
,399501,853,0,1838,-0.240,0.554,0.799,-20.51,-13.42,4.36,R
,399511,862,0,1840,-0.187,0.513,0.805,-21.64,-19.07,4.02,R
,399521,910,0,1840,-0.147,0.483,0.797,-24.97,-21.39,-2.43,R
,399531,1046,0,1840,-0.351,0.311,0.865,-35.02,-28.81,9.20,R
,399541,1077,0,1840,-0.174,0.465,0.692,-30.38,-20.24,-0.16,R
,399551,1136,0,1837,-0.201,0.525,0.766,-35.77,-21.74,-0.43,R
,399561,1205,0,1840,-0.210,0.524,0.785,-39.10,-22.70,-1.01,R
,399571,1294,0,1837,-0.239,0.563,0.793,-46.15,-27.91,0.36,R
,399581,1250,0,1840,-0.199,0.553,0.758,-49.32,-33.56,0.30,R
,399591,1229,0,1840,-0.191,0.547,0.783,-51.48,-37.28,-1.15,R
,399601,1168,0,1840,-0.205,0.543,0.799,-56.55,-41.53,-2.11,R
,399611,965,0,1840,-0.219,0.563,0.821,-60.32,-45.66,-1.50,R
,399621,970,0,1839,-0.209,0.530,0.832,-65.78,-49.27,2.73,R
,399631,990,0,1839,-0.209,0.544,0.808,-66.56,-55.05,5.15,R
,399641,973,0,1839,-0.185,0.533,0.827,-71.08,-57.60,5.51,R
,399651,832,0,1835,-0.137,0.478,0.842,-67.69,-60.21,5.11,R
,399661,843,0,1838,-0.058,0.447,0.917,-55.31,-61.74,-2.19,R
,399671,832,0,1838,-0.077,0.505,0.882,-56.47,-58.90,-4.07,R
,399681,766,0,1837,-0.126,0.727,1.499,-52.01,-41.89,-10.46,R
,399691,816,0,1837,-0.021,0.442,1.081,-55.43,-62.98,-4.34,R
,399701,805,0,1840,-0.020,0.381,0.985,-46.10,-58.98,-8.45,R
,399711,803,0,1841,-0.038,0.365,0.965,-36.81,-47.79,-6.48,R
,399721,759,0,1840,-0.019,0.358,0.965,-26.36,-33.42,-4.22,R
,399731,789,0,1838,0.009,0.343,0.973,-13.95,-13.36,-5.44,R
,399741,834,0,1840,-0.033,0.365,0.987,-5.74,5.60,-5.64,R
,399751,864,0,1840,-0.078,0.389,0.963,0.77,16.76,-4.65,R
,399761,866,0,1835,-0.119,0.415,0.950,2.03,19.63,-1.43,R
,399771,871,0,1834,-0.110,0.389,0.909,6.68,14.95,-1.53,R
,399781,891,0,1839,-0.102,0.384,0.883,8.46,6.55,-6.49,R
,399791,932,0,1840,-0.100,0.377,0.909,6.87,0.67,-10.02,R
,399801,974,0,1839,-0.014,0.310,0.957,4.97,-5.54,-15.95,R
,399811,1117,0,1840,-0.047,0.322,0.942,12.61,-1.51,-19.73,R
,399821,1312,0,1841,-0.083,0.414,0.937,13.44,8.75,-13.85,R
,399831,1508,0,1841,-0.070,0.431,0.948,12.20,14.73,-8.69,R
,399841,1637,0,1840,-0.063,0.426,0.950,14.10,14.37,-10.01,R
,399851,1646,0,1838,-0.098,0.440,0.935,15.56,12.85,-11.84,R
,399861,1794,0,1835,-0.133,0.459,0.933,13.32,10.21,-12.78,R
,399871,1813,0,1839,-0.148,0.444,0.915,12.72,7.45,-11.66,R
,399881,1813,0,1840,-0.115,0.421,0.907,15.45,5.56,-13.18,R
,399891,1882,0,1837,-0.206,0.471,0.917,16.03,7.68,-16.72,R
,399901,1936,0,1841,-0.159,0.466,0.869,18.80,11.21,-18.57,R
,399911,1978,0,1840,-0.177,0.479,0.872,12.75,7.02,-17.18,R
,399921,2000,0,1838,-0.187,0.483,0.844,9.01,0.44,-16.63,R
,399931,1981,0,1840,-0.142,0.458,0.866,3.78,-7.56,-13.75,R
,399941,1968,0,1840,-0.110,0.466,0.878,1.67,-12.89,-12.46,R
,399951,1981,0,1840,-0.041,0.411,0.903,3.64,-9.97,-13.61,R
,399961,2029,0,1840,-0.003,0.378,0.964,7.10,-4.14,-15.20,R
,399971,2041,0,1842,-0.037,0.410,0.953,11.13,7.19,-12.92,R
,399981,2022,0,1843,-0.073,0.411,0.955,11.67,18.96,-7.29,R
,399991,2035,0,1840,-0.102,0.437,0.941,12.46,23.83,-3.84,R
,400001,2053,0,1838,-0.113,0.424,0.947,11.84,21.08,-4.02,R
,400011,2043,0,1843,-0.132,0.449,0.911,13.47,16.31,-7.44,R
,400021,2061,0,1840,-0.175,0.478,0.944,10.90,12.09,-6.78,R
,400031,2090,0,1840,-0.180,0.505,0.931,9.53,10.03,-2.86,R
,400041,2106,0,1840,-0.141,0.487,0.916,11.99,10.38,-3.62,R
,400051,2112,0,1836,-0.154,0.494,0.884,11.68,10.82,-4.54,R
,400061,2141,0,1840,-0.154,0.477,0.869,11.04,11.80,-4.02,R
,400071,2142,0,1839,-0.179,0.494,0.839,5.45,9.33,-2.25,R
,400081,2153,0,1841,-0.171,0.478,0.849,2.28,5.10,-1.30,R
,400091,2167,0,1840,-0.135,0.452,0.830,-1.16,-2.53,-2.88,R
,400101,2167,0,1841,-0.136,0.454,0.832,-4.07,-4.90,-2.07,R
,400111,2181,0,1839,-0.118,0.466,0.854,-6.07,-3.42,0.01,R
,400121,2203,0,1840,-0.108,0.479,0.875,-6.47,0.89,0.88,R
,400131,2193,0,1840,-0.104,0.460,0.897,-5.31,6.05,0.91,R
,400141,2211,0,1841,-0.116,0.469,0.932,-0.87,10.32,-0.07,R
,400151,2192,0,1840,-0.141,0.490,0.928,4.92,14.18,-2.13,R
,400161,2249,0,1840,-0.205,0.504,0.928,0.25,15.19,0.82,R
,400171,2267,0,1840,-0.206,0.516,0.899,-1.64,10.01,2.77,R
,400181,2274,0,1839,-0.198,0.506,0.918,-8.48,1.22,4.63,R
,400191,2283,0,1839,-0.185,0.487,0.888,-13.45,-7.76,3.64,R
,400201,2270,0,1840,-0.163,0.462,0.883,-19.63,-14.47,1.78,R
,400211,2283,0,1840,-0.138,0.437,0.869,-18.42,-14.78,1.63,R
,400221,2285,0,1841,-0.131,0.441,0.866,-13.43,-7.22,2.15,R
,400231,2283,0,1841,-0.105,0.446,0.878,-8.09,1.82,0.96,R
,400241,2283,0,1843,-0.112,0.421,0.884,-2.67,9.80,1.08,R
,400251,2292,0,1843,-0.146,0.460,0.867,1.15,14.61,1.47,R
,400261,2298,0,1847,-0.150,0.451,0.904,1.45,13.92,2.21,R
,400271,2298,0,1841,-0.147,0.453,0.904,2.10,9.68,-0.71,R
,400281,2318,0,1841,-0.172,0.442,0.916,-1.83,5.33,-0.82,R
,400291,2320,0,1841,-0.165,0.441,0.924,-0.32,3.86,0.48,R
,400301,2352,0,1843,-0.133,0.433,0.944,-0.59,4.70,-0.57,R
,400311,2369,0,1841,-0.146,0.458,0.939,-3.98,7.36,-0.05,R
,400321,2365,0,1841,-0.153,0.446,0.951,-4.04,10.05,-0.04,R
,400331,2374,0,1840,-0.144,0.448,0.957,-1.16,14.73,-0.22,R
,400341,2370,0,1842,-0.147,0.480,0.946,0.61,20.11,-0.82,R
,400351,2403,0,1843,-0.172,0.486,0.939,-2.01,23.74,-1.27,R
,400361,2415,0,1844,-0.199,0.493,0.917,-3.16,21.37,-3.47,R
,400371,2416,0,1845,-0.229,0.494,0.876,-6.71,16.03,-3.00,R
,400381,2416,0,1845,-0.185,0.445,0.865,-7.52,10.00,-2.83,R
,400391,2427,0,1847,-0.185,0.417,0.867,-7.45,3.13,-5.44,R
,400401,2422,0,1840,-0.157,0.397,0.834,-5.97,2.18,-7.27,R
,400411,2445,0,1841,-0.165,0.379,0.846,-2.76,1.33,-6.94,R
,400421,2431,0,1842,-0.146,0.365,0.842,7.12,5.48,-6.57,R
,400431,2446,0,1840,-0.169,0.419,0.845,11.65,10.67,-2.07,R
,400441,2440,0,1841,-0.155,0.433,0.871,15.76,19.21,-2.13,R
,400451,2465,0,1840,-0.168,0.452,0.922,11.44,17.62,-3.53,R
,400461,2458,0,1840,-0.226,0.493,0.919,5.68,15.01,-2.86,R
,400471,2486,0,1843,-0.229,0.495,0.927,2.63,9.47,-2.80,R
,400481,2447,0,1843,-0.224,0.498,0.909,-1.39,6.01,-3.49,R
,400491,2471,0,1840,-0.233,0.485,0.928,-5.05,5.42,-4.62,R
,400501,2459,0,1840,-0.213,0.463,0.892,-2.29,5.25,-4.05,R
,400511,2472,0,1840,-0.232,0.436,0.875,-1.78,6.08,-1.37,R
,400521,2450,0,1840,-0.206,0.437,0.861,0.58,4.92,0.53,R
,400531,2479,0,1841,-0.187,0.425,0.898,0.05,2.95,-0.10,R
,400541,2490,0,1841,-0.180,0.428,0.875,-0.04,3.66,-1.20,R
,400551,2503,0,1841,-0.209,0.448,0.866,-0.30,5.11,0.16,R
,400561,2493,0,1840,-0.198,0.443,0.893,-1.72,3.86,0.33,R
,400571,2499,0,1840,-0.192,0.448,0.898,1.09,4.47,-0.85,R
,400581,2503,0,1841,-0.218,0.481,0.890,-1.22,4.26,-0.72,R
,400591,2491,0,1840,-0.223,0.471,0.900,-2.15,1.86,-1.79,R
,400601,2471,0,1841,-0.231,0.490,0.887,-3.32,-0.70,-1.33,R
,400611,2468,0,1840,-0.232,0.481,0.897,-3.06,-3.22,-0.78,R
,400621,2465,0,1840,-0.220,0.475,0.887,-3.37,-5.69,-1.91,R
,400631,2457,0,1841,-0.214,0.490,0.887,-2.47,-6.06,0.70,R
,400641,2437,0,1846,-0.197,0.474,0.892,-4.59,-7.40,1.26,R
,400651,2465,0,1844,-0.220,0.476,0.862,-7.40,-7.97,0.70,R
,400661,2464,0,1842,-0.239,0.467,0.845,-8.71,-11.33,-0.20,R
,400671,2451,0,1845,-0.231,0.451,0.852,-9.75,-14.52,0.42,R
,400681,2460,0,1843,-0.195,0.415,0.878,-13.19,-19.77,-1.85,R
,400691,2466,0,1843,-0.156,0.394,0.892,-11.43,-20.64,-7.07,R
,400701,2449,0,1841,-0.159,0.398,0.883,-10.22,-14.23,-7.24,R
,400711,2464,0,1840,-0.148,0.385,0.904,-6.93,-10.21,-7.00,R
,400721,2446,0,1841,-0.123,0.353,0.922,-0.30,-7.22,-8.46,R
,400731,2447,0,1840,-0.134,0.355,0.922,4.02,-0.60,-7.40,R
,400741,2455,0,1843,-0.179,0.394,0.921,6.28,5.65,-3.73,R
,400751,2448,0,1839,-0.179,0.414,0.920,6.48,7.13,-2.66,R
,400761,2458,0,1841,-0.208,0.456,0.924,3.96,4.78,-2.22,R
,400771,2467,0,1839,-0.200,0.444,0.919,3.59,1.31,-3.93,R
,400781,2451,0,1843,-0.209,0.458,0.907,1.00,0.70,-4.43,R
,400791,2452,0,1842,-0.211,0.452,0.900,1.91,1.02,-3.91,R
,400801,2450,0,1842,-0.196,0.456,0.890,2.00,-0.78,-4.89,R
,400811,2470,0,1840,-0.187,0.440,0.868,0.78,-2.21,-4.78,R
,400821,2462,0,1843,-0.177,0.438,0.872,0.02,-2.79,-5.90,R
,400831,2465,0,1840,-0.172,0.437,0.883,1.06,-1.50,-5.37,R
,400841,2461,0,1835,-0.161,0.419,0.910,2.75,-1.36,-6.13,R
,400851,2455,0,1837,-0.155,0.424,0.921,5.61,0.31,-5.26,R
,400861,2477,0,1840,-0.142,0.441,0.946,9.56,5.34,-3.15,R
,400871,2474,0,1834,-0.144,0.450,0.944,10.11,9.92,-2.07,R
,400881,2476,0,1839,-0.150,0.451,0.927,10.63,11.01,-3.03,R
,400891,2494,0,1835,-0.184,0.453,0.909,9.59,10.72,-2.49,R
,400901,2481,0,1839,-0.206,0.471,0.871,8.07,7.39,-1.58,R
,400911,2475,0,1831,-0.215,0.487,0.833,2.02,2.37,-0.66,R
,400921,2465,0,1840,-0.213,0.470,0.830,-2.33,-3.92,-1.20,R
,400931,2465,0,1842,-0.201,0.468,0.834,-4.41,-7.31,-2.54,R
,400941,2474,0,1837,-0.197,0.471,0.874,-3.42,-4.76,-1.62,R
,400951,2476,0,1838,-0.183,0.471,0.906,-3.72,-0.79,-1.32,R
,400961,2469,0,1840,-0.188,0.470,0.924,-1.03,3.50,0.50,R
,400971,2478,0,1840,-0.192,0.470,0.927,0.61,5.27,0.16,R
,400981,2479,0,1842,-0.217,0.477,0.912,1.36,7.07,0.54,R
,400991,2483,0,1840,-0.209,0.459,0.919,3.29,6.17,-1.35,R
,401001,2479,0,1839,-0.224,0.466,0.879,1.15,4.84,-1.76,R
,401011,2463,0,1840,-0.227,0.451,0.851,0.22,2.20,-0.88,R
,401021,2465,0,1840,-0.218,0.445,0.851,-2.07,-1.57,-0.37,R
,401031,2450,0,1836,-0.208,0.442,0.850,-3.23,-3.83,-0.31,R
,401041,2458,0,1837,-0.212,0.446,0.862,-4.09,-4.11,0.56,R
,401051,2445,0,1840,-0.201,0.455,0.884,-3.63,-3.47,1.26,R
,401061,2440,0,1840,-0.221,0.468,0.886,-5.81,-2.35,2.85,R
,401071,2423,0,1840,-0.217,0.471,0.909,-6.82,-2.55,2.86,R
,401081,2423,0,1840,-0.223,0.475,0.898,-6.96,-3.22,2.57,R
,401091,2439,0,1838,-0.220,0.463,0.903,-6.27,-3.01,1.87,R
,401101,2414,0,1839,-0.211,0.464,0.892,-6.87,-4.49,1.86,R
,401111,2416,0,1840,-0.193,0.426,0.885,-4.53,-4.95,1.05,R
,401121,2416,0,1840,-0.173,0.423,0.884,-3.43,-4.03,0.15,R
,401131,2445,0,1834,-0.156,0.406,0.875,-1.43,-2.08,-0.53,R
,401141,2403,0,1831,-0.157,0.414,0.882,1.03,0.95,-0.91,R
,401151,2387,0,1838,-0.168,0.424,0.877,2.00,1.30,-0.08,R
,401161,2410,0,1837,-0.181,0.442,0.899,2.00,0.21,-0.01,R
,401171,2389,0,1835,-0.191,0.457,0.901,0.68,-1.28,0.12,R
,401181,2386,0,1837,-0.191,0.463,0.916,-0.47,-2.35,0.02,R
,401191,2404,0,1834,-0.166,0.469,0.916,-1.40,-1.27,-1.85,R
,401201,2399,0,1841,-0.181,0.465,0.925,-1.45,0.79,-2.36,R
,401211,2395,0,1840,-0.180,0.436,0.927,-0.67,1.88,-2.91,R
,401221,2394,0,1839,-0.163,0.427,0.926,1.49,2.53,-2.77,R
,401231,2375,0,1838,-0.163,0.428,0.919,0.94,2.79,-1.67,R
,401241,2380,0,1840,-0.162,0.426,0.907,1.99,4.29,-2.25,R
,401251,2395,0,1839,-0.191,0.432,0.903,1.62,5.10,-1.53,R
,401261,2399,0,1840,-0.206,0.440,0.908,1.71,3.77,-0.94,R
,401271,2382,0,1840,-0.202,0.451,0.911,1.29,3.94,-0.66,R
,401281,2415,0,1840,-0.211,0.448,0.910,-0.04,4.06,-1.85,R
,401291,2448,0,1840,-0.219,0.445,0.915,1.99,6.38,-2.54,R
,401301,2458,0,1840,-0.217,0.454,0.918,1.91,6.96,-3.27,R
,401311,2455,0,1842,-0.224,0.435,0.896,1.32,6.60,-3.26,R
,401321,2453,0,1840,-0.235,0.437,0.871,0.32,4.72,-4.14,R
,401331,2421,0,1839,-0.242,0.422,0.857,-0.47,1.39,-3.20,R
,401341,2416,0,1840,-0.214,0.432,0.848,0.71,-0.11,-3.29,R
,401351,2411,0,1840,-0.195,0.426,0.853,-1.03,-0.03,-4.17,R
,401361,2419,0,1840,-0.204,0.431,0.868,-2.36,0.34,-3.91,R
,401371,2406,0,1843,-0.206,0.433,0.884,1.27,1.02,-3.50,R
,401381,2413,0,1839,-0.205,0.445,0.884,4.37,2.01,-2.31,R
,401391,2415,0,1840,-0.209,0.459,0.889,5.10,1.19,-2.54,R
,401401,2416,0,1842,-0.232,0.470,0.890,3.58,-0.60,-2.11,R
,401411,2414,0,1840,-0.215,0.466,0.897,3.58,-2.67,-2.22,R
,401421,2416,0,1840,-0.212,0.484,0.905,3.29,-1.57,-2.40,R
,401431,2415,0,1840,-0.194,0.479,0.915,1.62,-0.41,-2.17,R
,401441,2416,0,1846,-0.207,0.474,0.918,1.15,0.78,-1.49,R
,401451,2416,0,1841,-0.204,0.462,0.908,1.41,0.81,-0.54,R
,401461,2417,0,1843,-0.186,0.458,0.886,1.53,0.23,-1.06,R
,401471,2413,0,1845,-0.191,0.452,0.866,-0.22,0.52,-1.12,R
,401481,2421,0,1843,-0.182,0.449,0.850,-0.44,0.34,-1.53,R
,401491,2426,0,1843,-0.196,0.448,0.869,-0.39,0.70,-0.85,R
,401501,2431,0,1840,-0.175,0.439,0.876,0.92,1.72,-1.15,R
,401511,2426,0,1840,-0.189,0.452,0.883,1.19,3.24,-1.09,R
,401521,2439,0,1842,-0.205,0.454,0.880,1.87,4.43,-0.92,R
,401531,2422,0,1840,-0.231,0.458,0.883,1.65,3.54,-0.24,R
,401541,2423,0,1840,-0.232,0.451,0.890,2.94,0.67,-0.66,R
,401551,2422,0,1839,-0.230,0.460,0.887,2.63,-0.41,-0.33,R
,401561,2417,0,1841,-0.213,0.455,0.887,2.61,0.24,-0.40,R
,401571,2413,0,1842,-0.209,0.459,0.907,0.20,-0.40,-1.15,R
,401581,2406,0,1840,-0.200,0.450,0.913,2.72,0.99,-0.69,R
,401591,2397,0,1840,-0.205,0.451,0.899,3.67,4.52,-0.07,R
,401601,2418,0,1841,-0.196,0.458,0.900,4.80,6.92,-0.46,R
,401611,2430,0,1840,-0.218,0.464,0.889,4.54,7.68,-0.05,R
,401621,2423,0,1840,-0.206,0.447,0.895,6.22,6.37,-0.85,R
,401631,2407,0,1841,-0.213,0.450,0.879,5.61,5.53,-0.85,R
,401641,2419,0,1840,-0.209,0.467,0.865,3.91,4.66,-0.28,R
,401651,2416,0,1839,-0.213,0.457,0.876,3.32,3.68,-1.12,R
,401661,2429,0,1840,-0.215,0.474,0.891,1.64,4.70,0.02,R
,401671,2417,0,1836,-0.193,0.461,0.896,0.69,5.57,-0.71,R
,401681,2417,0,1839,-0.200,0.459,0.906,-0.03,5.85,-2.59,R
,401691,2416,0,1839,-0.216,0.458,0.895,2.49,7.14,-2.10,R
,401701,2419,0,1840,-0.220,0.471,0.888,4.34,8.79,-1.73,R
,401711,2429,0,1840,-0.226,0.463,0.872,4.16,9.57,-1.40,R
,401721,2423,0,1840,-0.227,0.463,0.884,2.57,8.12,-2.39,R
,401731,2430,0,1834,-0.237,0.454,0.875,1.07,4.93,-2.48,R
,401741,2432,0,1839,-0.213,0.439,0.871,0.57,2.09,-3.95,R
,401751,2433,0,1840,-0.228,0.448,0.863,0.55,1.21,-3.50,R
,401761,2435,0,1837,-0.225,0.438,0.859,0.14,1.54,-3.01,R
,401771,2438,0,1834,-0.234,0.446,0.857,0.31,2.00,-2.19,R
,401781,2443,0,1834,-0.242,0.452,0.866,-0.96,1.08,-1.56,R
,401791,2445,0,1839,-0.228,0.448,0.885,2.00,1.77,-2.04,R
,401801,2457,0,1840,-0.231,0.460,0.889,1.33,2.78,-2.63,R
,401811,2454,0,1834,-0.240,0.461,0.892,2.32,2.32,-3.23,R
,401821,2467,0,1838,-0.253,0.461,0.895,3.13,0.81,-2.92,R
,401831,2470,0,1830,-0.229,0.443,0.900,3.65,-0.98,-3.21,R
,401841,2495,0,1837,-0.216,0.452,0.895,1.94,0.11,-3.07,R
,401851,2480,0,1837,-0.226,0.458,0.885,-0.09,-0.02,-3.04,R
,401861,2485,0,1840,-0.219,0.459,0.877,-0.04,-1.85,-3.11,R
,401871,2483,0,1839,-0.221,0.464,0.879,1.56,-1.15,-3.04,R
,401881,2486,0,1841,-0.218,0.478,0.861,2.71,0.79,-2.02,R
,401891,2484,0,1840,-0.226,0.482,0.865,1.01,2.06,-2.48,R
,401901,2485,0,1840,-0.230,0.485,0.870,2.57,2.29,-3.55,R
,401911,2485,0,1838,-0.229,0.490,0.870,3.84,2.87,-3.18,R
,401921,2505,0,1833,-0.223,0.485,0.879,3.52,3.42,-4.31,R
,401931,2525,0,1837,-0.231,0.469,0.877,3.79,4.00,-4.11,R
,401941,2513,0,1835,-0.231,0.466,0.884,5.67,4.44,-3.06,R
,401951,2517,0,1833,-0.228,0.476,0.874,5.55,5.57,-1.49,R
,401961,2522,0,1835,-0.242,0.485,0.873,3.07,5.65,-0.78,R
,401971,2525,0,1840,-0.236,0.481,0.866,-0.41,3.82,-1.01,R
,401981,2522,0,1840,-0.253,0.480,0.881,-1.78,1.36,-0.86,R
,401991,2530,0,1840,-0.242,0.484,0.875,-2.33,-0.60,-0.34,R
,402001,2531,0,1841,-0.252,0.470,0.852,-2.94,-1.10,0.96,R
,402011,2534,0,1840,-0.233,0.463,0.858,-2.24,-1.66,1.22,R
,402021,2523,0,1839,-0.234,0.461,0.847,-2.68,-1.65,0.68,R
,402031,2523,0,1842,-0.241,0.464,0.876,-2.97,-1.21,1.38,R
,402041,2514,0,1837,-0.240,0.479,0.881,-2.53,0.20,2.13,R
,402051,2511,0,1840,-0.234,0.488,0.889,-2.41,2.58,1.26,R
,402061,2512,0,1840,-0.238,0.481,0.880,-2.01,4.63,0.97,R
,402071,2498,0,1841,-0.265,0.492,0.873,-2.97,5.43,1.58,R
,402081,2506,0,1840,-0.243,0.466,0.862,-2.12,5.22,1.25,R
,402091,2512,0,1840,-0.244,0.456,0.866,-3.97,2.82,-0.88,R
,402101,2491,0,1845,-0.230,0.450,0.855,-4.71,0.72,-2.01,R
,402111,2535,0,1841,-0.241,0.465,0.860,-9.29,-1.11,-1.11,R
,402121,2515,0,1839,-0.263,0.444,0.871,-9.69,-5.21,0.88,R
,402131,2513,0,1840,-0.238,0.417,0.854,-7.95,-10.02,0.28,R
,402141,2512,0,1839,-0.269,0.464,0.854,-8.01,-9.99,2.34,R
,402151,2523,0,1840,-0.244,0.462,0.881,-6.27,-8.35,3.86,R
,402161,2512,0,1841,-0.219,0.475,0.908,-7.80,-5.44,1.34,R
,402171,2516,0,1840,-0.244,0.457,0.911,-9.00,-3.68,0.13,R
,402181,2515,0,1842,-0.247,0.460,0.953,-4.09,-0.90,0.38,R
,402191,2526,0,1840,-0.229,0.448,0.938,-4.53,0.44,0.10,R
,402201,2529,0,1843,-0.240,0.470,0.916,-0.44,3.74,-0.82,R
,402211,2524,0,1840,-0.228,0.467,0.901,2.63,6.44,-1.78,R
,402221,2529,0,1837,-0.228,0.441,0.881,2.87,3.86,-4.42,R
,402231,2528,0,1840,-0.246,0.427,0.870,4.17,2.20,-5.44,R
,402241,2537,0,1841,-0.225,0.415,0.866,6.94,1.30,-3.12,R
,402251,2535,0,1843,-0.197,0.422,0.852,3.90,1.39,-2.36,R
,402261,2537,0,1840,-0.218,0.439,0.854,-0.21,1.48,0.45,R
,402271,2533,0,1841,-0.235,0.460,0.858,-2.10,-1.05,2.41,R
,402281,2519,0,1840,-0.226,0.464,0.876,-2.76,-5.48,1.29,R
,402291,2526,0,1835,-0.231,0.459,0.887,-1.63,-7.51,1.25,R
,402301,2527,0,1841,-0.217,0.470,0.892,-0.76,-5.66,-0.02,R
,402311,2532,0,1839,-0.234,0.478,0.893,-1.98,-5.79,0.59,R
,402321,2514,0,1840,-0.229,0.452,0.883,-2.76,-5.80,0.19,R
,402331,2513,0,1839,-0.218,0.444,0.893,0.34,-3.44,-0.86,R
,402341,2524,0,1836,-0.222,0.453,0.909,0.54,-0.69,-2.33,R
,402351,2507,0,1831,-0.218,0.446,0.913,4.17,2.05,-2.95,R
,402361,2499,0,1835,-0.240,0.457,0.893,5.47,4.17,-1.37,R
,402371,2499,0,1839,-0.221,0.456,0.886,5.18,4.81,-0.95,R
,402381,2480,0,1834,-0.229,0.456,0.880,4.69,5.30,-2.45,R
,402391,2474,0,1839,-0.222,0.450,0.867,5.88,5.14,-3.01,R
,402401,2498,0,1838,-0.227,0.451,0.859,2.94,3.16,-3.29,R
,402411,2479,0,1837,-0.250,0.456,0.849,2.48,0.11,-1.01,R
,402421,2485,0,1836,-0.229,0.441,0.845,0.66,-4.17,0.47,R
,402431,2470,0,1840,-0.206,0.435,0.840,0.51,-5.19,-1.38,R
,402441,2475,0,1840,-0.225,0.433,0.845,-0.97,-6.21,-2.31,R
,402451,2480,0,1840,-0.224,0.441,0.847,-0.90,-4.55,-2.19,R
,402461,2449,0,1841,-0.230,0.466,0.866,0.31,-2.34,-1.61,R
,402471,2485,0,1840,-0.234,0.477,0.912,2.77,-0.21,-0.77,R
,402481,2486,0,1835,-0.216,0.485,0.928,2.63,2.08,-2.02,R
,402491,2454,0,1831,-0.224,0.482,0.935,1.94,3.65,-3.56,R
,402501,2438,0,1831,-0.248,0.488,0.934,2.39,4.15,-3.20,R
,402511,2432,0,1838,-0.259,0.483,0.903,3.76,3.91,-1.20,R
,402521,2439,0,1838,-0.235,0.480,0.870,2.43,3.07,-0.48,R
,402531,2444,0,1839,-0.258,0.471,0.843,-1.32,0.21,-0.40,R
,402541,2462,0,1840,-0.243,0.448,0.834,-2.41,-5.22,0.04,R
,402551,2462,0,1840,-0.221,0.444,0.811,-3.25,-9.36,-0.01,R
,402561,2477,0,1839,-0.208,0.439,0.822,-3.75,-9.47,0.47,R
,402571,2465,0,1835,-0.196,0.453,0.854,-1.64,-5.47,0.94,R
,402581,2461,0,1838,-0.202,0.466,0.875,-1.29,-0.37,1.00,R
,402591,2463,0,1838,-0.229,0.482,0.881,-0.84,2.82,1.73,R
,402601,2475,0,1840,-0.266,0.499,0.876,-2.90,2.55,2.30,R
,402611,2482,0,1840,-0.287,0.495,0.888,-3.23,-0.35,2.21,R
,402621,2480,0,1840,-0.285,0.485,0.872,-3.46,-4.93,0.09,R
,402631,2489,0,1840,-0.292,0.485,0.861,-4.70,-8.05,-0.25,R
,402641,2491,0,1838,-0.289,0.483,0.834,-6.50,-12.81,0.38,R
,402651,2482,0,1840,-0.272,0.471,0.828,-7.72,-17.73,1.03,R
,402661,2480,0,1841,-0.259,0.465,0.827,-10.51,-20.84,2.79,R
,402671,2472,0,1840,-0.239,0.454,0.845,-11.40,-23.83,3.28,R
,402681,2472,0,1839,-0.231,0.461,0.864,-12.59,-23.77,4.83,R
,402691,2465,0,1834,-0.211,0.461,0.867,-15.86,-23.53,6.22,R
,402701,2436,0,1833,-0.232,0.482,0.890,-18.64,-23.40,7.03,R
,402711,2462,0,1835,-0.234,0.489,0.894,-19.51,-22.72,8.82,R
,402721,2458,0,1839,-0.236,0.490,0.917,-18.91,-23.08,9.23,R
,402731,2437,0,1831,-0.223,0.471,0.928,-16.82,-23.07,8.12,R
,402741,2439,0,1836,-0.205,0.460,0.917,-15.64,-22.28,7.17,R
,402751,2448,0,1834,-0.192,0.469,0.923,-16.36,-21.08,7.92,R
,402761,2447,0,1839,-0.186,0.437,0.907,-19.14,-21.99,7.89,R
,402771,2445,0,1838,-0.171,0.426,0.914,-17.81,-20.32,7.95,R
,402781,2432,0,1836,-0.169,0.421,0.917,-19.40,-18.43,9.05,R
,402791,2429,0,1835,-0.181,0.423,0.920,-19.40,-16.53,10.82,R
,402801,2411,0,1835,-0.197,0.424,0.912,-20.47,-17.30,13.80,R
,402811,2393,0,1844,-0.203,0.432,0.919,-21.90,-19.11,16.91,R
,402821,2388,0,1840,-0.221,0.452,0.925,-24.01,-21.48,18.82,R
,402831,2387,0,1841,-0.210,0.437,0.932,-27.06,-25.94,18.83,R
,402841,2374,0,1840,-0.176,0.428,0.947,-24.79,-27.62,16.01,R
,402851,2367,0,1840,-0.146,0.423,0.924,-22.24,-24.57,13.46,R
,402861,2317,0,1840,-0.132,0.417,0.933,-19.61,-18.55,11.92,R
,402871,2273,0,1840,-0.129,0.427,0.906,-15.60,-10.29,12.22,R
,402881,2250,0,1840,-0.128,0.413,0.898,-14.88,-7.13,12.74,R
,402891,2191,0,1834,-0.127,0.410,0.880,-14.67,-6.21,12.33,R
,402901,2183,0,1837,-0.166,0.408,0.883,-15.83,-8.21,14.57,R
,402911,2169,0,1839,-0.138,0.396,0.886,-17.80,-14.60,15.52,R
,402921,2143,0,1839,-0.115,0.402,0.886,-20.53,-18.89,16.07,R
,402931,2157,0,1836,-0.100,0.394,0.890,-25.19,-22.90,15.86,R
,402941,2161,0,1838,-0.075,0.365,0.892,-28.01,-25.10,14.71,R
,402951,2128,0,1838,-0.069,0.355,0.910,-28.96,-23.33,15.17,R
,402961,2170,0,1840,-0.051,0.357,0.906,-25.98,-18.37,15.23,R
,402971,2192,0,1836,-0.055,0.341,0.925,-23.19,-13.92,15.66,R
,402981,2183,0,1840,-0.066,0.353,0.927,-22.30,-12.18,16.65,R
,402991,2176,0,1839,-0.047,0.339,0.929,-22.24,-13.45,16.48,R
,403001,2182,0,1842,-0.065,0.365,0.946,-24.03,-15.68,14.89,R
,403011,2189,0,1841,-0.080,0.366,0.944,-25.28,-18.38,15.55,R
,403021,2192,0,1840,-0.069,0.360,0.949,-25.71,-21.66,14.41,R
,403031,2198,0,1840,-0.054,0.339,0.982,-24.30,-21.50,11.84,R
,403041,2206,0,1840,-0.058,0.347,0.978,-20.67,-17.51,10.22,R
,403051,2199,0,1838,-0.071,0.356,0.982,-19.10,-15.07,10.86,R
,403061,2198,0,1840,-0.055,0.337,0.971,-16.15,-16.57,8.44,R
,403071,2202,0,1840,-0.051,0.320,0.960,-13.89,-16.79,6.15,R
,403081,2201,0,1840,-0.048,0.301,0.944,-12.47,-17.22,4.31,R
,403091,2192,0,1843,-0.046,0.301,0.943,-9.89,-15.60,4.60,R
,403101,2194,0,1846,-0.039,0.305,0.959,-8.30,-13.86,5.51,R
,403111,2194,0,1846,-0.054,0.322,0.989,-7.32,-9.10,7.60,R
,403121,2206,0,1843,-0.043,0.331,0.994,-10.22,-9.85,7.70,R
,403131,2192,0,1845,-0.038,0.324,1.013,-12.88,-13.21,6.18,R
,403141,2194,0,1844,-0.024,0.339,1.005,-12.65,-14.24,5.87,R
,403151,2192,0,1840,0.009,0.317,0.998,-13.42,-12.75,6.10,R
,403161,2182,0,1840,-0.003,0.346,0.984,-11.97,-9.31,5.51,R
,403171,2175,0,1840,-0.020,0.325,0.983,-10.65,-6.87,6.09,R
,403181,2161,0,1840,-0.017,0.342,0.984,-8.51,-3.99,7.49,R
,403191,2186,0,1840,0.014,0.319,0.983,-5.16,-0.79,4.76,R
,403201,2178,0,1836,-0.022,0.319,0.968,-3.97,1.19,3.83,R
,403211,2170,0,1840,-0.008,0.276,0.952,-2.27,0.70,2.96,R
,403221,2172,0,1839,-0.045,0.316,0.955,-3.40,1.60,2.80,R
,403231,2186,0,1837,-0.011,0.297,0.950,-2.84,0.29,2.31,R
,403241,2176,0,1839,-0.034,0.307,0.962,-4.81,-0.89,0.56,R
,403251,2189,0,1840,-0.043,0.276,0.970,-4.07,-2.43,-0.65,R
,403261,2147,0,1840,-0.034,0.278,0.961,-2.55,-2.41,-1.59,R
,403271,2195,0,1841,-0.022,0.285,0.977,-1.11,-0.52,-2.04,R
,403281,2197,0,1840,-0.017,0.294,0.984,-0.26,0.15,-3.04,R
,403291,2195,0,1837,-0.045,0.293,0.992,-1.86,1.33,-1.85,R
,403301,2177,0,1840,-0.031,0.292,1.006,-1.46,-0.23,-2.83,R
,403311,2166,0,1843,-0.021,0.293,0.993,0.26,0.26,-4.05,R
,403321,2175,0,1840,-0.010,0.300,1.000,1.36,2.34,-5.21,R
,403331,2181,0,1840,-0.001,0.293,1.013,5.53,6.92,-5.52,R
,403341,2173,0,1841,-0.022,0.309,0.995,5.41,11.42,-4.77,R
,403351,2174,0,1839,-0.035,0.313,0.995,7.82,13.22,-3.69,R
,403361,2178,0,1840,-0.049,0.331,0.977,5.38,11.28,-4.71,R
,403371,2175,0,1839,-0.061,0.327,0.964,3.16,7.97,-4.53,R
,403381,2182,0,1836,-0.070,0.339,0.953,1.33,4.63,-5.43,R
,403391,2190,0,1840,-0.048,0.308,0.940,3.56,4.29,-6.07,R
,403401,2177,0,1837,-0.042,0.301,0.928,6.55,6.50,-7.73,R
,403411,2202,0,1840,-0.039,0.286,0.939,10.45,10.58,-8.60,R
,403421,2174,0,1840,-0.042,0.293,0.951,14.55,12.95,-9.75,R
,403431,2151,0,1840,-0.064,0.305,0.960,15.01,15.16,-7.72,R
,403441,2130,0,1837,-0.061,0.305,0.969,15.01,11.97,-7.43,R
,403451,2131,0,1834,-0.068,0.313,0.967,11.87,10.31,-6.02,R
,403461,2150,0,1834,-0.055,0.313,0.971,8.08,8.18,-4.98,R
,403471,2117,0,1839,-0.064,0.313,0.997,8.37,11.07,-1.40,R
,403481,2128,0,1840,-0.065,0.344,1.007,8.65,15.11,0.79,R
,403491,2141,0,1837,-0.081,0.363,0.999,10.65,19.53,1.35,R
,403501,2157,0,1842,-0.123,0.396,0.983,11.06,20.69,-0.62,R
,403511,2160,0,1842,-0.150,0.417,0.963,10.43,17.30,-1.53,R
,403521,2163,0,1840,-0.161,0.427,0.973,8.58,11.13,-1.75,R
,403531,2153,0,1840,-0.131,0.413,0.948,5.53,5.31,-3.67,R
,403541,2109,0,1844,-0.115,0.386,0.949,2.36,1.51,-4.66,R
,403551,2128,0,1836,-0.081,0.340,0.959,2.80,0.18,-4.97,R
,403561,2123,0,1840,-0.055,0.328,0.940,5.19,1.97,-6.30,R
,403571,2118,0,1839,-0.034,0.307,0.941,9.74,5.88,-7.29,R
,403581,2123,0,1842,-0.037,0.308,0.936,11.39,11.45,-6.69,R
,403591,2159,0,1840,-0.045,0.317,0.962,13.33,15.50,-5.98,R
,403601,2186,0,1840,-0.064,0.346,0.953,12.58,17.66,-5.49,R
,403611,2212,0,1839,-0.090,0.354,0.970,9.49,17.01,-6.37,R
,403621,2215,0,1846,-0.140,0.371,0.967,8.61,15.97,-4.98,R
,403631,2226,0,1840,-0.164,0.404,0.971,7.33,13.16,-3.29,R
,403641,2252,0,1840,-0.154,0.406,0.944,6.20,10.40,-2.56,R
,403651,2256,0,1838,-0.151,0.428,0.979,1.90,5.60,-3.49,R
,403661,2290,0,1844,-0.134,0.359,0.950,5.85,5.68,-3.88,R
,403671,2320,0,1843,-0.108,0.369,0.976,4.71,6.03,-5.79,R
,403681,2327,0,1840,-0.111,0.333,0.928,8.07,8.63,-6.60,R
,403691,2293,0,1840,-0.103,0.319,0.906,7.49,9.50,-4.27,R
,403701,2300,0,1840,-0.100,0.328,0.885,8.65,10.05,-3.72,R
,403711,2271,0,1840,-0.088,0.304,0.892,6.26,8.44,-2.65,R
,403721,2267,0,1840,-0.125,0.350,0.888,5.91,6.72,0.24,R
,403731,2283,0,1836,-0.077,0.351,0.901,3.76,2.95,-0.60,R
,403741,2240,0,1840,-0.104,0.383,0.931,1.85,5.04,-0.63,R
,403751,2334,0,1840,-0.106,0.396,0.970,1.62,7.08,-0.66,R
,403761,2327,0,1834,-0.116,0.403,0.972,1.91,8.27,-0.19,R
,403771,2327,0,1840,-0.148,0.413,0.982,1.58,9.08,0.56,R
,403781,2330,0,1838,-0.130,0.411,0.964,2.81,7.71,-0.25,R
,403791,2338,0,1837,-0.145,0.410,0.953,3.49,7.53,0.99,R
,403801,2346,0,1840,-0.104,0.399,0.947,2.92,6.56,-0.54,R
,403811,2339,0,1837,-0.112,0.392,0.932,2.00,6.46,-0.89,R
,403821,2352,0,1840,-0.086,0.367,0.925,3.36,4.63,-2.66,R
,403831,2369,0,1839,-0.098,0.371,0.911,4.36,5.39,-2.13,R
,403841,2354,0,1835,-0.052,0.353,0.925,5.84,8.64,-3.14,R
,403851,2380,0,1836,-0.071,0.338,0.937,9.21,15.43,-4.43,R
,403861,2357,0,1838,-0.120,0.378,0.948,12.71,21.21,-1.85,R
,403871,2361,0,1839,-0.111,0.392,0.959,12.97,20.84,-0.27,R
,403881,2384,0,1839,-0.133,0.412,0.988,9.01,16.23,-3.09,R
,403891,2364,0,1839,-0.154,0.406,0.993,7.93,11.77,-3.88,R
,403901,2368,0,1840,-0.163,0.418,0.986,5.84,7.08,-5.55,R
,403911,2352,0,1838,-0.171,0.402,0.972,5.06,3.30,-6.25,R
,403921,2355,0,1840,-0.167,0.390,0.954,6.32,2.76,-5.59,R
,403931,2336,0,1840,-0.143,0.353,0.949,8.00,2.52,-6.68,R
,403941,2285,0,1841,-0.143,0.320,0.931,10.43,1.28,-8.01,R
,403951,2256,0,1840,-0.137,0.300,0.907,14.19,-1.56,-8.46,R
,403961,2191,0,1840,-0.129,0.297,0.900,19.68,-6.24,-9.46,R
,403971,2137,0,1842,-0.147,0.311,0.872,23.23,-12.32,-8.54,R
,403981,2033,0,1840,-0.139,0.337,0.852,26.11,-19.88,-8.25,R
,403991,1987,0,1835,-0.134,0.346,0.808,25.44,-28.38,-7.15,R
,404001,1968,0,1840,-0.124,0.344,0.836,20.34,-39.79,-6.45,R
,404011,1921,0,1834,-0.107,0.324,0.865,20.51,-47.76,-10.11,R
,404021,1703,0,1840,-0.094,0.307,0.865,21.00,-52.18,-10.82,R
,404031,1402,0,1838,-0.097,0.302,0.908,23.79,-60.76,-12.43,R
,404041,1105,0,1839,0.000,0.299,0.904,23.32,-51.01,-15.04,R
,404051,919,0,1840,-0.014,0.297,0.948,28.94,-35.69,-10.62,R
,404061,791,0,1841,0.084,0.320,1.143,34.86,-13.33,-8.20,R
,404071,720,0,1842,-0.175,0.410,0.820,32.54,-26.47,2.16,R
,404081,704,0,1840,-0.102,0.387,0.838,30.45,-11.39,4.24,R
,404091,560,0,1841,-0.135,0.427,0.968,40.10,-3.07,9.14,R
,404101,559,0,1840,-0.105,0.497,0.981,35.62,7.37,9.44,R
,404111,571,0,1838,-0.064,0.552,0.887,34.10,14.37,10.65,R
,404121,573,0,1839,-0.063,0.498,0.953,29.94,19.30,7.47,R
,404131,304,0,1840,-0.163,0.565,1.036,23.07,20.66,0.99,R
,404141,48,0,1840,-0.067,0.436,0.927,21.16,19.83,2.93,R
,404151,0,0,1840,-0.186,0.527,1.098,10.65,11.69,-0.94,R
,404161,0,0,1835,-0.190,0.531,1.041,7.24,4.17,3.25,R
,404171,0,0,1837,-0.200,0.517,1.053,18.48,3.57,2.91,R
,404181,0,0,1836,-0.181,0.506,1.051,22.65,-0.14,7.72,R
,404191,48,0,1834,-0.173,0.541,1.021,23.81,-1.71,12.67,R
,404201,215,0,1839,-0.134,0.547,1.002,22.81,-3.95,16.45,R
,404211,214,0,1833,-0.107,0.549,0.962,20.42,-6.75,18.28,R
,404221,0,0,1837,-0.069,0.533,0.929,18.87,-9.45,17.26,R
,404231,0,0,1837,-0.061,0.536,0.893,14.17,-12.38,14.33,R
,404241,0,0,1835,-0.055,0.528,0.853,13.00,-12.46,10.93,R
,404251,0,0,1836,-0.060,0.552,0.835,8.08,-13.15,9.09,R
,404261,0,0,1835,-0.025,0.507,0.817,6.23,-11.66,5.80,R
,404271,0,0,1833,-0.017,0.489,0.794,6.07,-8.50,3.66,R
,404281,0,0,1838,-0.042,0.494,0.795,5.73,-3.89,2.27,R
,404291,0,0,1834,-0.052,0.472,0.799,7.16,-0.55,0.12,R
,404301,0,0,1839,-0.069,0.464,0.801,12.63,3.92,-1.56,R
,404311,0,0,1838,-0.084,0.477,0.804,18.66,9.57,-0.22,R
,404321,0,0,1840,-0.101,0.499,0.801,23.23,16.61,2.33,R
,404331,0,0,1839,-0.114,0.531,0.790,23.82,21.08,4.70,R
,404341,0,0,1835,-0.149,0.562,0.782,22.10,23.92,6.56,R
,404351,0,0,1833,-0.158,0.570,0.783,17.71,23.50,8.83,R
,404361,0,0,1835,-0.145,0.578,0.801,12.02,19.31,10.25,R
,404371,0,0,1835,-0.154,0.579,0.809,7.32,13.85,10.44,R
,404381,0,0,1835,-0.134,0.573,0.832,3.16,7.50,10.24,R
,404391,0,0,1841,-0.127,0.566,0.838,-0.81,3.76,9.75,R
,404401,0,0,1839,-0.117,0.565,0.854,-2.01,3.16,10.25,R
,404411,0,0,1838,-0.098,0.552,0.850,-0.44,6.34,10.28,R
,404421,0,0,1839,-0.094,0.559,0.856,1.18,11.68,10.01,R
,404431,0,0,1837,-0.093,0.550,0.854,1.27,15.28,8.50,R
,404441,0,0,1836,-0.099,0.531,0.854,2.60,16.01,5.52,R
,404451,0,0,1837,-0.094,0.532,0.863,4.83,14.66,2.31,R
,404461,0,0,1840,-0.097,0.532,0.861,8.89,14.46,1.11,R
,404471,0,0,1836,-0.087,0.522,0.858,11.18,14.75,0.67,R
,404481,0,0,1837,-0.080,0.526,0.855,13.01,15.18,0.25,R
,404491,0,0,1840,-0.069,0.523,0.851,15.09,16.67,-0.11,R
,404501,0,0,1836,-0.067,0.518,0.871,17.74,19.57,-0.62,R
,404511,0,0,1836,-0.073,0.523,0.863,20.80,23.13,-1.06,R
,404521,0,0,1837,-0.074,0.524,0.865,23.93,27.85,-0.85,R
,404531,0,0,1838,-0.093,0.530,0.866,27.04,32.14,-0.08,R
,404541,0,0,1840,-0.101,0.534,0.839,28.32,35.71,1.15,R
,404551,0,0,1840,-0.123,0.539,0.835,28.31,36.87,0.97,R
,404561,0,0,1840,-0.137,0.549,0.828,27.71,35.10,0.60,R
,404571,0,0,1840,-0.144,0.557,0.831,27.85,32.01,-0.02,R
,404581,0,0,1838,-0.142,0.566,0.831,28.78,28.46,-0.22,R
,404591,0,0,1837,-0.145,0.571,0.811,27.99,24.58,-0.85,R
,404601,0,0,1835,-0.155,0.572,0.804,24.68,20.27,-2.14,R
,404611,0,0,1833,-0.150,0.567,0.812,21.96,13.47,-3.04,R
,404621,0,0,1838,-0.149,0.552,0.805,22.40,7.50,-3.14,R
,404631,0,0,1840,-0.134,0.545,0.791,24.77,4.11,-2.80,R
,404641,0,0,1840,-0.126,0.544,0.772,27.50,2.85,-3.17,R
,404651,0,0,1838,-0.116,0.546,0.751,29.09,4.01,-5.35,R
,404661,0,0,1837,-0.112,0.561,0.727,27.38,7.83,-8.46,R
,404671,0,0,1838,-0.132,0.575,0.732,25.64,11.10,-12.39,R
,404681,0,0,1835,-0.141,0.588,0.746,28.16,14.01,-14.30,R
,404691,0,0,1831,-0.159,0.586,0.756,28.46,15.07,-14.83,R
,404701,0,0,1837,-0.175,0.599,0.756,28.23,16.50,-15.14,R
,404711,0,0,1839,-0.199,0.632,0.772,27.65,18.01,-13.96,R
,404721,0,0,1840,-0.215,0.658,0.771,27.39,18.67,-13.09,R
,404731,0,0,1839,-0.212,0.667,0.777,24.90,18.08,-11.59,R
,404741,0,0,1837,-0.226,0.690,0.772,21.18,16.99,-11.17,R
,404751,0,0,1839,-0.234,0.699,0.773,17.01,15.08,-10.92,R
,404761,0,0,1840,-0.247,0.710,0.787,13.00,12.23,-9.98,R
,404771,0,0,1837,-0.260,0.713,0.779,9.21,9.76,-8.62,R
,404781,0,0,1837,-0.272,0.704,0.785,6.25,7.25,-6.11,R
,404791,0,0,1839,-0.271,0.703,0.783,3.35,5.08,-4.10,R
,404801,0,0,1838,-0.274,0.689,0.772,0.20,2.00,-1.21,R
,404811,0,0,1837,-0.260,0.675,0.783,-1.72,-0.72,1.25,R
,404821,0,0,1840,-0.239,0.670,0.797,-1.28,-1.56,2.68,R
,404831,0,0,1838,-0.220,0.668,0.790,-0.45,-1.10,3.78,R
,404841,0,0,1831,-0.210,0.659,0.794,-0.96,-1.42,4.07,R
,404851,0,0,1838,-0.197,0.632,0.787,-3.75,-2.57,3.35,R
,404861,0,0,1840,-0.194,0.644,0.793,-3.57,-3.73,3.15,R
,404871,0,0,1837,-0.187,0.636,0.773,-1.25,-4.02,3.92,R
,404881,0,0,1840,-0.174,0.630,0.759,2.08,-2.84,4.33,R
,404891,0,0,1838,-0.161,0.631,0.749,4.49,0.24,3.69,R
,404901,0,0,1841,-0.154,0.631,0.753,4.66,3.24,2.01,R
,404911,0,0,1840,-0.166,0.631,0.755,3.18,4.81,0.48,R
,404921,0,0,1838,-0.179,0.617,0.754,0.80,4.90,0.51,R
,404931,0,0,1840,-0.187,0.620,0.756,0.23,4.31,0.56,R
,404941,0,0,1840,-0.183,0.617,0.752,-0.22,2.92,0.63,R
,404951,0,0,1839,-0.182,0.613,0.753,-0.47,2.78,0.16,R
,404961,0,0,1840,-0.178,0.608,0.734,0.02,4.01,-0.53,R
,404971,0,0,1840,-0.176,0.589,0.770,-3.00,2.53,-2.97,R
,404981,0,0,1839,-0.208,0.623,0.763,-7.69,-1.02,-2.27,R
,404991,0,0,1840,-0.211,0.571,0.774,-6.79,-2.47,-1.21,R
,405001,0,0,1840,-0.229,0.622,0.763,-4.84,-2.82,0.85,R
,405011,0,0,1837,-0.218,0.610,0.760,-0.76,-0.84,1.46,R
,405021,0,0,1839,-0.204,0.603,0.761,2.03,1.94,1.28,R
,405031,0,0,1839,-0.206,0.621,0.763,4.77,5.45,0.63,R
,405041,0,0,1840,-0.203,0.630,0.766,5.53,7.86,-0.34,R
,405051,0,0,1836,-0.202,0.632,0.762,5.32,8.61,-0.27,R
,405061,0,0,1838,-0.211,0.643,0.767,4.36,8.40,-0.07,R
,405071,0,0,1838,-0.210,0.631,0.759,4.61,7.05,-0.16,R
,405081,0,0,1840,-0.197,0.611,0.791,3.53,5.74,-0.68,R
,405091,0,0,1840,-0.195,0.607,0.785,4.11,5.30,0.42,R
,405101,0,0,1842,-0.205,0.622,0.777,6.40,11.11,3.98,R
,405111,0,0,1840,-0.205,0.646,0.780,7.84,17.30,8.44,R
,405121,0,0,1841,-0.194,0.662,0.777,8.81,20.78,10.93,R
,405131,0,0,1840,-0.186,0.664,0.762,9.42,22.00,10.68,R
,405141,0,0,1843,-0.189,0.665,0.758,10.37,20.87,8.31,R
,405151,0,0,1842,-0.208,0.671,0.760,10.13,17.88,5.87,R
,405161,0,0,1842,-0.208,0.672,0.763,9.56,15.51,3.06,R
,405171,0,0,1839,-0.222,0.671,0.756,8.42,12.53,0.86,R
,405181,0,0,1840,-0.222,0.667,0.758,8.68,10.89,-1.09,R
,405191,0,0,1840,-0.217,0.663,0.761,9.88,8.23,-3.06,R
,405201,0,0,1837,-0.213,0.650,0.758,11.07,5.59,-4.72,R
,405211,0,0,1837,-0.211,0.654,0.750,11.71,4.43,-5.20,R
,405221,0,0,1837,-0.222,0.659,0.742,13.41,6.79,-4.53,R
,405231,0,0,1835,-0.215,0.649,0.765,10.94,8.26,-3.56,R
,405241,0,0,1833,-0.207,0.642,0.758,7.56,8.17,-2.95,R
,405251,0,0,1839,-0.227,0.650,0.747,6.34,7.65,-1.58,R
,405261,0,0,1841,-0.235,0.641,0.735,7.70,7.05,-0.39,R
,405271,0,0,1840,-0.232,0.655,0.733,8.34,6.14,-0.25,R
,405281,0,0,1840,-0.229,0.660,0.728,6.48,4.09,-1.56,R
,405291,0,0,1835,-0.228,0.661,0.726,4.43,2.01,-2.98,R
,405301,0,0,1839,-0.233,0.658,0.728,2.84,-0.53,-3.73,R
,405311,0,0,1837,-0.233,0.651,0.728,1.73,-2.87,-4.89,R
,405321,0,0,1837,-0.227,0.651,0.733,1.56,-3.88,-4.62,R
,405331,0,0,1831,-0.224,0.654,0.735,1.82,-3.34,-4.33,R
,405341,0,0,1838,-0.215,0.648,0.741,3.19,-2.44,-3.56,R
,405351,0,0,1837,-0.208,0.657,0.737,5.36,0.61,-2.14,R
,405361,0,0,1835,-0.218,0.671,0.725,8.16,5.79,-0.91,R
,405371,0,0,1839,-0.213,0.673,0.720,9.13,9.79,-0.82,R
,405381,0,0,1835,-0.217,0.674,0.715,9.49,11.65,-1.56,R
,405391,0,0,1833,-0.232,0.671,0.708,9.62,11.59,-2.14,R
,405401,0,0,1838,-0.246,0.675,0.712,10.36,10.89,-2.22,R
,405411,0,0,1839,-0.244,0.672,0.716,9.32,9.10,-2.04,R
,405421,0,0,1841,-0.245,0.674,0.705,7.42,6.63,-3.15,R
,405431,0,0,1840,-0.247,0.679,0.702,6.17,3.57,-3.44,R
,405441,0,0,1836,-0.242,0.677,0.703,5.07,3.04,-3.35,R
,405451,0,0,1835,-0.241,0.678,0.685,3.47,3.36,-2.65,R
,405461,0,0,1840,-0.245,0.685,0.698,2.13,3.89,-2.10,R
,405471,0,0,1837,-0.242,0.687,0.692,0.92,6.11,-1.32,R
,405481,0,0,1840,-0.244,0.686,0.687,0.46,7.14,-0.30,R
,405491,0,0,1836,-0.250,0.684,0.686,-0.38,7.71,0.63,R
,405501,0,0,1839,-0.250,0.687,0.689,-1.54,8.20,1.40,R
,405511,0,0,1840,-0.259,0.687,0.691,-2.61,8.38,2.02,R
,405521,0,0,1835,-0.258,0.688,0.686,-3.75,9.36,2.60,R
,405531,0,0,1840,-0.263,0.687,0.693,-4.91,8.46,3.02,R
,405541,0,0,1837,-0.262,0.674,0.699,-6.71,7.14,2.94,R
,405551,0,0,1840,-0.268,0.672,0.707,-6.91,6.27,3.03,R
,405561,0,0,1840,-0.273,0.669,0.712,-6.16,6.52,4.24,R
,405571,0,0,1837,-0.269,0.673,0.702,-5.61,7.86,5.20,R
,405581,0,0,1840,-0.267,0.677,0.710,-4.88,8.58,5.92,R
,405591,0,0,1840,-0.260,0.680,0.708,-5.11,8.61,5.76,R
,405601,0,0,1840,-0.262,0.677,0.713,-5.51,9.11,5.99,R
,405611,0,0,1838,-0.261,0.676,0.710,-5.66,9.85,6.36,R
,405621,0,0,1835,-0.262,0.675,0.720,-5.69,9.62,6.31,R
,405631,0,0,1838,-0.273,0.676,0.716,-6.48,8.92,7.02,R
,405641,0,0,1839,-0.264,0.671,0.726,-7.61,7.39,6.38,R
,405651,0,0,1835,-0.262,0.671,0.731,-8.94,6.03,5.86,R
,405661,0,0,1837,-0.263,0.668,0.734,-9.13,5.30,6.50,R
,405671,0,0,1837,-0.267,0.668,0.737,-8.88,4.63,8.18,R
,405681,0,0,1833,-0.259,0.686,0.735,-7.69,6.55,11.67,R
,405691,0,0,1839,-0.252,0.696,0.736,-7.06,9.79,14.91,R
,405701,0,0,1839,-0.247,0.701,0.741,-7.57,11.51,16.60,R
,405711,0,0,1839,-0.248,0.702,0.745,-8.99,11.25,16.94,R
,405721,0,0,1840,-0.247,0.705,0.746,-11.86,9.27,16.44,R
,405731,0,0,1838,-0.245,0.646,0.741,-11.26,5.18,13.83,R
,405741,0,0,1840,-0.262,0.650,0.686,-12.47,1.68,14.77,R
,405751,0,0,1840,-0.305,0.713,0.646,-8.64,10.72,24.09,R
,405761,0,0,1840,-0.315,0.713,0.621,-5.05,26.38,36.86,R
,405771,0,0,1836,-0.261,0.724,0.613,-4.81,36.46,42.51,R
,405781,0,0,1838,-0.234,0.717,0.628,-8.55,39.34,39.47,R
,405791,0,0,1840,-0.239,0.704,0.615,-14.88,35.74,33.52,R
,405801,0,0,1835,-0.267,0.721,0.631,-21.46,31.37,30.50,R
,405811,0,0,1840,-0.285,0.700,0.638,-26.16,28.61,30.24,R
,405821,0,0,1837,-0.283,0.686,0.664,-31.54,26.38,31.64,R
,405831,0,0,1840,-0.280,0.671,0.683,-36.35,21.71,32.27,R
,405841,0,0,1839,-0.264,0.652,0.709,-42.64,15.11,30.62,R
,405851,0,0,1840,-0.247,0.650,0.750,-47.45,6.40,27.26,R
,405861,0,0,1840,-0.238,0.635,0.781,-47.89,-1.66,23.20,R
,405871,0,0,1838,-0.219,0.608,0.790,-47.48,-9.25,17.55,R
,405881,0,0,1840,-0.205,0.588,0.818,-47.98,-16.64,10.67,R
,405891,0,0,1838,-0.200,0.559,0.845,-48.18,-22.17,5.23,R
,405901,0,0,1840,-0.190,0.533,0.899,-48.35,-28.50,0.12,R
,405911,0,0,1840,-0.156,0.504,0.920,-38.91,-28.70,-2.53,R
,405921,0,0,1840,-0.176,0.495,0.919,-23.42,-19.69,-2.08,R
,405931,0,0,1840,-0.167,0.496,0.930,-9.11,-8.44,1.34,R
,405941,0,0,1836,-0.160,0.494,0.919,2.57,-0.43,2.41,R
,405951,0,0,1839,-0.157,0.518,0.902,11.71,6.32,2.39,R
,405961,0,0,1839,-0.167,0.540,0.875,15.81,10.60,2.07,R
,405971,0,0,1837,-0.175,0.562,0.853,16.80,11.89,1.18,R
,405981,0,0,1840,-0.187,0.590,0.833,13.76,9.57,-0.36,R
,405991,0,0,1840,-0.198,0.600,0.817,7.07,3.77,-1.87,R
,406001,0,0,1838,-0.213,0.612,0.804,0.25,-3.85,-3.17,R
,406011,0,0,1841,-0.222,0.623,0.794,-5.54,-10.20,-2.56,R
,406021,0,0,1841,-0.209,0.625,0.799,-8.33,-14.63,-1.75,R
,406031,0,0,1840,-0.214,0.595,0.812,-12.06,-17.66,-0.98,R
,406041,0,0,1840,-0.208,0.624,0.804,-10.13,-14.95,1.44,R
,406051,0,0,1840,-0.198,0.623,0.812,-3.37,-9.15,3.49,R
,406061,0,0,1841,-0.180,0.612,0.802,4.32,-3.62,3.86,R
,406071,0,0,1841,-0.186,0.623,0.787,7.96,-1.53,1.83,R
,406081,0,0,1840,-0.197,0.628,0.775,10.52,-1.44,-0.42,R
,406091,0,0,1840,-0.216,0.635,0.770,12.45,-1.40,-1.03,R
,406101,0,0,1838,-0.229,0.633,0.754,14.52,-1.28,-0.34,R
,406111,0,0,1839,-0.217,0.647,0.753,13.32,-3.11,0.05,R
,406121,0,0,1840,-0.215,0.644,0.742,11.84,-5.01,-0.83,R
,406131,0,0,1838,-0.199,0.650,0.731,8.87,-6.69,-1.20,R
,406141,0,0,1841,-0.217,0.651,0.730,7.93,-7.30,-1.29,R
,406151,0,0,1840,-0.205,0.651,0.741,5.96,-8.75,-2.05,R
,406161,0,0,1840,-0.211,0.646,0.719,3.59,-10.03,-2.46,R
,406171,0,0,1840,-0.202,0.636,0.716,0.52,-10.95,-2.98,R
,406181,0,0,1837,-0.194,0.633,0.713,-0.41,-11.33,-3.67,R
,406191,0,0,1840,-0.192,0.629,0.717,-0.16,-11.36,-4.85,R
,406201,0,0,1840,-0.172,0.621,0.720,0.45,-12.49,-7.61,R
,406211,0,0,1838,-0.175,0.617,0.719,0.75,-15.80,-12.42,R
,406221,0,0,1838,-0.179,0.598,0.718,0.87,-20.90,-18.17,R
,406231,0,0,1837,-0.182,0.589,0.726,-0.13,-27.73,-23.91,R
,406241,0,0,1835,-0.179,0.581,0.729,-1.35,-33.76,-28.20,R
,406251,0,0,1839,-0.197,0.584,0.741,-0.96,-36.99,-29.29,R
,406261,0,0,1837,-0.197,0.599,0.744,-0.68,-36.76,-27.11,R
,406271,0,0,1840,-0.213,0.607,0.749,1.85,-31.88,-21.30,R
,406281,0,0,1840,-0.199,0.618,0.752,3.68,-24.50,-15.85,R
,406291,0,0,1841,-0.214,0.646,0.763,3.30,-16.90,-10.66,R
,406301,0,0,1840,-0.229,0.666,0.766,1.52,-10.32,-6.63,R
,406311,0,0,1841,-0.272,0.725,0.748,-2.88,-3.97,-0.89,R
,406321,0,0,1841,-0.242,0.714,0.782,-5.37,0.26,5.60,R
,406331,0,0,1840,-0.231,0.723,0.837,-5.98,-0.43,7.64,R
